
time,gFx,gFy,gFz,ax,ay,az,wx,wy,wz,p,Bx,By,Bz,I,Azimuth,Pitch,Roll,Gain,Latitude,Longitude,Speed (m/s),
0.078756,0.0000,0.0000,0.0000,0.0000,0.0000,0.0000,0.0000,0.0000,0.0000,0.0000,0.0000,0.0000,0.0000,32.6287,0.0000,0.0000,0.0000,-∞,0.00000000,0.00000000,0.00000000,
0.123827,-0.0488,0.3217,1.0039,0.0000,0.0000,0.0000,0.0000,0.0000,0.0000,0.0000,0.0000,0.0000,0.0000,32.6287,0.0000,0.0000,0.0000,-∞,0.00000000,0.00000000,0.00000000,
0.135678,-0.0488,0.3217,1.0039,0.0000,0.0000,0.0000,0.0000,0.0000,0.0000,935.9216,0.0000,0.0000,0.0000,32.6287,0.0000,0.0000,0.0000,-∞,0.00000000,0.00000000,0.00000000,
0.142924,-0.0488,0.3217,1.0039,0.0000,0.0000,0.0000,0.0330,-0.3477,0.1489,935.9216,0.0000,0.0000,0.0000,32.6287,0.0000,0.0000,0.0000,-∞,0.00000000,0.00000000,0.00000000,
0.189734,-0.0488,0.3217,1.0039,0.0000,0.0000,0.0000,0.0330,-0.3477,0.1489,935.9216,24.3250,-23.7650,-4.9962,32.6287,0.0000,0.0000,0.0000,-∞,0.00000000,0.00000000,0.00000000,
0.190617,0.0898,0.3379,0.6820,0.0000,0.0000,0.0000,0.0330,-0.3477,0.1489,935.9216,24.3250,-23.7650,-4.9962,32.6287,0.0000,0.0000,0.0000,-∞,0.00000000,0.00000000,0.00000000,
0.210380,0.0898,0.3379,0.6820,0.0000,0.0000,0.0000,0.0608,0.3042,-0.0041,935.9216,24.3250,-23.7650,-4.9962,32.6287,0.0000,0.0000,0.0000,-∞,0.00000000,0.00000000,0.00000000,
0.215454,0.0898,0.3379,0.6820,0.0000,0.0000,0.0000,0.0608,0.3042,-0.0041,935.8885,24.3250,-23.7650,-4.9962,32.6287,0.0000,0.0000,0.0000,-∞,0.00000000,0.00000000,0.00000000,
0.255521,0.0898,0.3379,0.6820,0.0000,0.0000,0.0000,0.0608,0.3042,-0.0041,935.8311,24.3250,-23.7650,-4.9962,32.6287,0.0000,0.0000,0.0000,-∞,0.00000000,0.00000000,0.00000000,
0.257749,-0.0605,0.4002,1.0656,0.0000,0.0000,0.0000,0.0608,0.3042,-0.0041,935.8311,24.3250,-23.7650,-4.9962,32.6287,0.0000,0.0000,0.0000,-∞,0.00000000,0.00000000,0.00000000,
0.269053,-0.0605,0.4002,1.0656,0.0000,0.0000,0.0000,0.0608,0.3042,-0.0041,935.8311,24.3988,-23.9412,-4.4325,32.6287,0.0000,0.0000,0.0000,-∞,0.00000000,0.00000000,0.00000000,
0.277108,-0.0605,0.4002,1.0656,0.0000,0.0000,0.0000,-0.1023,0.0716,0.1196,935.8311,24.3988,-23.9412,-4.4325,32.6287,0.0000,0.0000,0.0000,-∞,0.00000000,0.00000000,0.00000000,
0.326317,0.0388,0.3149,0.8969,0.0000,0.0000,0.0000,-0.1023,0.0716,0.1196,935.8311,24.3988,-23.9412,-4.4325,32.6287,0.0000,0.0000,0.0000,-∞,0.00000000,0.00000000,0.00000000,
0.328140,0.0388,0.3149,0.8969,0.0000,0.0000,0.0000,-0.1023,0.0716,0.1196,935.8311,24.1050,-23.8450,-4.9587,32.6287,0.0000,0.0000,0.0000,-∞,0.00000000,0.00000000,0.00000000,
0.337284,0.0388,0.3149,0.8969,0.0000,0.0000,0.0000,-0.1023,0.0716,0.1196,935.8462,24.1050,-23.8450,-4.9587,32.6287,0.0000,0.0000,0.0000,-∞,0.00000000,0.00000000,0.00000000,
0.344798,0.0388,0.3149,0.8969,0.0000,0.0000,0.0000,0.1274,-0.1729,0.0263,935.8462,24.1050,-23.8450,-4.9587,32.6287,0.0000,0.0000,0.0000,-∞,0.00000000,0.00000000,0.00000000,
0.388136,0.0388,0.3149,0.8969,0.0000,0.0000,0.0000,0.1274,-0.1729,0.0263,935.8462,24.3200,-23.6313,-5.1425,32.6287,0.0000,0.0000,0.0000,-∞,0.00000000,0.00000000,0.00000000,
0.392551,-0.0525,0.4034,0.9187,0.0000,0.0000,0.0000,0.1274,-0.1729,0.0263,935.8462,24.3200,-23.6313,-5.1425,32.6287,0.0000,0.0000,0.0000,-∞,0.00000000,0.00000000,0.00000000,
0.411844,-0.0525,0.4034,0.9187,0.0000,0.0000,0.0000,-0.1209,0.0093,0.1127,935.8462,24.3200,-23.6313,-5.1425,32.6287,0.0000,0.0000,0.0000,-∞,0.00000000,0.00000000,0.00000000,
0.416345,-0.0525,0.4034,0.9187,0.0000,0.0000,0.0000,-0.1209,0.0093,0.1127,935.8364,24.3200,-23.6313,-5.1425,32.6287,0.0000,0.0000,0.0000,-∞,0.00000000,0.00000000,0.00000000,
0.455779,-0.0525,0.4034,0.9187,0.0000,0.0000,0.0000,-0.1209,0.0093,0.1127,935.8423,24.3200,-23.6313,-5.1425,32.6287,0.0000,0.0000,0.0000,-∞,0.00000000,0.00000000,0.00000000,
0.460617,0.0207,0.3350,0.9028,0.0000,0.0000,0.0000,-0.1209,0.0093,0.1127,935.8423,24.3200,-23.6313,-5.1425,32.6287,0.0000,0.0000,0.0000,-∞,0.00000000,0.00000000,0.00000000,
0.467672,0.0207,0.3350,0.9028,0.0000,0.0000,0.0000,-0.1209,0.0093,0.1127,935.8423,24.2312,-23.5887,-5.4600,32.6287,0.0000,0.0000,0.0000,-∞,0.00000000,0.00000000,0.00000000,
0.479311,0.0207,0.3350,0.9028,0.0000,0.0000,0.0000,0.0673,-0.1066,0.0006,935.8423,24.2312,-23.5887,-5.4600,32.6287,0.0000,0.0000,0.0000,-∞,0.00000000,0.00000000,0.00000000,
0.527772,0.0207,0.3350,0.9028,0.0000,0.0000,0.0000,0.0673,-0.1066,0.0006,935.8423,23.6337,-23.9500,-5.2562,32.6287,0.0000,0.0000,0.0000,89.0923,0.00000000,0.00000000,0.00000000,
0.528493,-0.0314,0.4109,1.0733,0.0000,0.0000,0.0000,0.0673,-0.1066,0.0006,935.8423,23.6337,-23.9500,-5.2562,32.6287,0.0000,0.0000,0.0000,89.0923,0.00000000,0.00000000,0.00000000,
0.535870,-0.0314,0.4109,1.0733,0.0000,0.0000,0.0000,0.0673,-0.1066,0.0006,935.8430,23.6337,-23.9500,-5.2562,32.6287,0.0000,0.0000,0.0000,89.0923,0.00000000,0.00000000,0.00000000,
0.547102,-0.0314,0.4109,1.0733,0.0000,0.0000,0.0000,0.0258,-0.1063,0.1952,935.8430,23.6337,-23.9500,-5.2562,32.6287,0.0000,0.0000,0.0000,89.0923,0.00000000,0.00000000,0.00000000,
0.594492,0.0624,0.3151,0.8084,0.0000,0.0000,0.0000,0.0258,-0.1063,0.1952,935.8430,23.6337,-23.9500,-5.2562,32.6287,0.0000,0.0000,0.0000,89.0923,0.00000000,0.00000000,0.00000000,
0.595154,0.0624,0.3151,0.8084,0.5242,-0.5378,-1.1933,0.0258,-0.1063,0.1952,935.8430,23.6337,-23.9500,-5.2562,32.6287,0.0000,0.0000,0.0000,89.0923,0.00000000,0.00000000,0.00000000,
0.595795,0.0624,0.3151,0.8084,0.5242,-0.5378,-1.1933,0.0258,-0.1063,0.1952,935.8430,23.6337,-23.9500,-5.2562,32.6287,228.7746,-21.6896,0.5093,89.0923,0.00000000,0.00000000,0.00000000,
0.607321,0.0624,0.3151,0.8084,0.5242,-0.5378,-1.1933,0.0258,-0.1063,0.1952,935.8430,23.5387,-24.2875,-5.0525,32.6287,228.7746,-21.6896,0.5093,89.0923,0.00000000,0.00000000,0.00000000,
0.613411,0.0624,0.3151,0.8084,0.5242,-0.5378,-1.1933,-0.0023,-0.0790,0.0021,935.8430,23.5387,-24.2875,-5.0525,32.6287,228.7746,-21.6896,0.5093,89.0923,0.00000000,0.00000000,0.00000000,
0.615093,0.0624,0.3151,0.8084,0.5242,-0.5378,-1.1933,-0.0023,-0.0790,0.0021,935.8375,23.5387,-24.2875,-5.0525,32.6287,228.7746,-21.6896,0.5093,89.0923,0.00000000,0.00000000,0.00000000,
0.656134,0.0624,0.3151,0.8084,0.5242,-0.5378,-1.1933,-0.0023,-0.0790,0.0021,935.8468,23.5387,-24.2875,-5.0525,32.6287,228.7746,-21.6896,0.5093,89.0923,0.00000000,0.00000000,0.00000000,
0.662214,-0.0131,0.3765,0.9167,0.5242,-0.5378,-1.1933,-0.0023,-0.0790,0.0021,935.8468,23.5387,-24.2875,-5.0525,32.6287,228.7746,-21.6896,0.5093,89.0923,0.00000000,0.00000000,0.00000000,
0.662756,-0.0131,0.3765,0.9167,-0.1300,0.0903,-0.1425,-0.0023,-0.0790,0.0021,935.8468,23.5387,-24.2875,-5.0525,32.6287,228.7746,-21.6896,0.5093,89.0923,0.00000000,0.00000000,0.00000000,
0.663240,-0.0131,0.3765,0.9167,-0.1300,0.0903,-0.1425,-0.0023,-0.0790,0.0021,935.8468,23.5387,-24.2875,-5.0525,32.6287,228.2879,-21.5242,0.0106,89.0923,0.00000000,0.00000000,0.00000000,
0.666514,-0.0131,0.3765,0.9167,-0.1300,0.0903,-0.1425,-0.0023,-0.0790,0.0021,935.8468,23.2600,-24.1375,-5.8500,32.6287,228.2879,-21.5242,0.0106,89.0923,0.00000000,0.00000000,0.00000000,
0.680778,-0.0131,0.3765,0.9167,-0.1300,0.0903,-0.1425,-0.0396,0.1414,0.0974,935.8468,23.2600,-24.1375,-5.8500,32.6287,228.2879,-21.5242,0.0106,89.0923,0.00000000,0.00000000,0.00000000,
0.726546,-0.0131,0.3765,0.9167,-0.1300,0.0903,-0.1425,-0.0396,0.1414,0.0974,935.8468,23.1612,-24.2725,-5.8525,32.6287,228.2879,-21.5242,0.0106,89.0923,0.00000000,0.00000000,0.00000000,
0.728328,0.0071,0.3332,0.9259,-0.1300,0.0903,-0.1425,-0.0396,0.1414,0.0974,935.8468,23.1612,-24.2725,-5.8525,32.6287,228.2879,-21.5242,0.0106,89.0923,0.00000000,0.00000000,0.00000000,
0.728895,0.0071,0.3332,0.9259,0.0346,-0.3335,-0.0519,-0.0396,0.1414,0.0974,935.8468,23.1612,-24.2725,-5.8525,32.6287,228.2879,-21.5242,0.0106,89.0923,0.00000000,0.00000000,0.00000000,
0.729419,0.0071,0.3332,0.9259,0.0346,-0.3335,-0.0519,-0.0396,0.1414,0.0974,935.8468,23.1612,-24.2725,-5.8525,32.6287,228.0461,-21.5237,0.2030,89.0923,0.00000000,0.00000000,0.00000000,
0.736248,0.0071,0.3332,0.9259,0.0346,-0.3335,-0.0519,-0.0396,0.1414,0.0974,935.8779,23.1612,-24.2725,-5.8525,32.6287,228.0461,-21.5237,0.2030,89.0923,0.00000000,0.00000000,0.00000000,
0.748473,0.0071,0.3332,0.9259,0.0346,-0.3335,-0.0519,0.0115,-0.0049,0.0783,935.8779,23.1612,-24.2725,-5.8525,32.6287,228.0461,-21.5237,0.2030,89.0923,0.00000000,0.00000000,0.00000000,
0.796233,0.0063,0.3735,0.9064,0.0346,-0.3335,-0.0519,0.0115,-0.0049,0.0783,935.8779,23.1612,-24.2725,-5.8525,32.6287,228.0461,-21.5237,0.2030,89.0923,0.00000000,0.00000000,0.00000000,
0.797902,0.0063,0.3735,0.9064,0.0406,0.0618,-0.2435,0.0115,-0.0049,0.0783,935.8779,23.1612,-24.2725,-5.8525,32.6287,228.0461,-21.5237,0.2030,89.0923,0.00000000,0.00000000,0.00000000,
0.798487,0.0063,0.3735,0.9064,0.0406,0.0618,-0.2435,0.0115,-0.0049,0.0783,935.8779,23.1612,-24.2725,-5.8525,32.6287,227.7110,-21.5176,0.1244,89.0923,0.00000000,0.00000000,0.00000000,
0.806215,0.0063,0.3735,0.9064,0.0406,0.0618,-0.2435,0.0115,-0.0049,0.0783,935.8779,23.4587,-23.7775,-5.3362,32.6287,227.7110,-21.5176,0.1244,92.7742,0.00000000,0.00000000,0.00000000,
0.815969,0.0063,0.3735,0.9064,0.0406,0.0618,-0.2435,-0.0536,0.0518,0.0976,935.8779,23.4587,-23.7775,-5.3362,32.6287,227.7110,-21.5176,0.1244,92.7742,0.00000000,0.00000000,0.00000000,
0.816558,0.0063,0.3735,0.9064,0.0406,0.0618,-0.2435,-0.0536,0.0518,0.0976,935.8477,23.4587,-23.7775,-5.3362,32.6287,227.7110,-21.5176,0.1244,92.7742,0.00000000,0.00000000,0.00000000,
0.855673,0.0063,0.3735,0.9064,0.0406,0.0618,-0.2435,-0.0536,0.0518,0.0976,935.8691,23.4587,-23.7775,-5.3362,32.6287,227.7110,-21.5176,0.1244,92.7742,0.00000000,0.00000000,0.00000000,
0.863232,-0.0021,0.3425,0.9499,0.0406,0.0618,-0.2435,-0.0536,0.0518,0.0976,935.8691,23.4587,-23.7775,-5.3362,32.6287,227.7110,-21.5176,0.1244,92.7742,0.00000000,0.00000000,0.00000000,
0.863877,-0.0021,0.3425,0.9499,-0.0604,-0.2047,0.1684,-0.0536,0.0518,0.0976,935.8691,23.4587,-23.7775,-5.3362,32.6287,227.7110,-21.5176,0.1244,92.7742,0.00000000,0.00000000,0.00000000,
0.864372,-0.0021,0.3425,0.9499,-0.0604,-0.2047,0.1684,-0.0536,0.0518,0.0976,935.8691,23.4587,-23.7775,-5.3362,32.6287,227.4819,-21.2864,0.2293,92.7742,0.00000000,0.00000000,0.00000000,
0.864848,-0.0021,0.3425,0.9499,-0.0604,-0.2047,0.1684,-0.0536,0.0518,0.0976,935.8691,23.2175,-24.3975,-6.0612,32.6287,227.4819,-21.2864,0.2293,92.7742,0.00000000,0.00000000,0.00000000,
0.882490,-0.0021,0.3425,0.9499,-0.0604,-0.2047,0.1684,-0.0018,-0.0134,0.0675,935.8691,23.2175,-24.3975,-6.0612,32.6287,227.4819,-21.2864,0.2293,92.7742,0.00000000,0.00000000,0.00000000,
0.925070,-0.0021,0.3425,0.9499,-0.0604,-0.2047,0.1684,-0.0018,-0.0134,0.0675,935.8691,23.0700,-24.3400,-5.7600,32.6287,227.4819,-21.2864,0.2293,92.7742,0.00000000,0.00000000,0.00000000,
0.930438,0.0333,0.3359,0.9131,-0.0604,-0.2047,0.1684,-0.0018,-0.0134,0.0675,935.8691,23.0700,-24.3400,-5.7600,32.6287,227.4819,-21.2864,0.2293,92.7742,0.00000000,0.00000000,0.00000000,
0.931009,0.0333,0.3359,0.9131,0.3186,-0.2561,-0.1978,-0.0018,-0.0134,0.0675,935.8691,23.0700,-24.3400,-5.7600,32.6287,227.4819,-21.2864,0.2293,92.7742,0.00000000,0.00000000,0.00000000,
0.931531,0.0333,0.3359,0.9131,0.3186,-0.2561,-0.1978,-0.0018,-0.0134,0.0675,935.8691,23.0700,-24.3400,-5.7600,32.6287,227.0679,-21.2030,0.0444,92.7742,0.00000000,0.00000000,0.00000000,
0.935682,0.0333,0.3359,0.9131,0.3186,-0.2561,-0.1978,-0.0018,-0.0134,0.0675,935.8524,23.0700,-24.3400,-5.7600,32.6287,227.0679,-21.2030,0.0444,92.7742,0.00000000,0.00000000,0.00000000,
0.949607,0.0333,0.3359,0.9131,0.3186,-0.2561,-0.1978,-0.0023,0.0707,0.0715,935.8524,23.0700,-24.3400,-5.7600,32.6287,227.0679,-21.2030,0.0444,92.7742,0.00000000,0.00000000,0.00000000,
0.997885,0.0303,0.3615,0.9816,0.3186,-0.2561,-0.1978,-0.0023,0.0707,0.0715,935.8524,23.0700,-24.3400,-5.7600,32.6287,227.0679,-21.2030,0.0444,92.7742,0.00000000,0.00000000,0.00000000,
0.998681,0.0303,0.3615,0.9816,0.3380,-0.0218,0.4806,-0.0023,0.0707,0.0715,935.8524,23.0700,-24.3400,-5.7600,32.6287,227.0679,-21.2030,0.0444,92.7742,0.00000000,0.00000000,0.00000000,
0.999228,0.0303,0.3615,0.9816,0.3380,-0.0218,0.4806,-0.0023,0.0707,0.0715,935.8524,23.0700,-24.3400,-5.7600,32.6287,226.6483,-21.3081,-0.2405,92.7742,0.00000000,0.00000000,0.00000000,
1.004147,0.0303,0.3615,0.9816,0.3380,-0.0218,0.4806,-0.0023,0.0707,0.0715,935.8524,22.8675,-24.1975,-5.6388,32.6287,226.6483,-21.3081,-0.2405,92.7742,0.00000000,0.00000000,0.00000000,
1.016543,0.0303,0.3615,0.9816,0.3380,-0.0218,0.4806,-0.0023,0.0707,0.0715,935.8105,22.8675,-24.1975,-5.6388,32.6287,226.6483,-21.3081,-0.2405,92.7742,0.00000000,0.00000000,0.00000000,
1.017222,0.0303,0.3615,0.9816,0.3380,-0.0218,0.4806,0.0118,0.1329,0.0797,935.8105,22.8675,-24.1975,-5.6388,32.6287,226.6483,-21.3081,-0.2405,92.7742,0.00000000,0.00000000,0.00000000,
1.055536,0.0303,0.3615,0.9816,0.3380,-0.0218,0.4806,0.0118,0.1329,0.0797,935.8158,22.8675,-24.1975,-5.6388,32.6287,226.6483,-21.3081,-0.2405,92.7742,0.00000000,0.00000000,0.00000000,
1.063261,0.0303,0.3615,0.9816,0.3380,-0.0218,0.4806,0.0118,0.1329,0.0797,935.8158,22.6287,-24.1962,-5.2487,32.6287,226.6483,-21.3081,-0.2405,92.7742,0.00000000,0.00000000,0.00000000,
1.064961,0.0119,0.3402,0.9779,0.3380,-0.0218,0.4806,0.0118,0.1329,0.0797,935.8158,22.6287,-24.1962,-5.2487,32.6287,226.6483,-21.3081,-0.2405,92.7742,0.00000000,0.00000000,0.00000000,
1.065644,0.0119,0.3402,0.9779,0.1158,-0.2472,0.4511,0.0118,0.1329,0.0797,935.8158,22.6287,-24.1962,-5.2487,32.6287,226.6483,-21.3081,-0.2405,92.7742,0.00000000,0.00000000,0.00000000,
1.066128,0.0119,0.3402,0.9779,0.1158,-0.2472,0.4511,0.0118,0.1329,0.0797,935.8158,22.6287,-24.1962,-5.2487,32.6287,226.3367,-21.4149,0.0047,92.7742,0.00000000,0.00000000,0.00000000,
1.085520,0.0119,0.3402,0.9779,0.1158,-0.2472,0.4511,0.0246,-0.0927,0.1016,935.8158,22.6287,-24.1962,-5.2487,32.6287,226.3367,-21.4149,0.0047,92.7742,0.00000000,0.00000000,0.00000000,
1.123012,0.0119,0.3402,0.9779,0.1158,-0.2472,0.4511,0.0246,-0.0927,0.1016,935.8158,22.1900,-24.7262,-5.4562,32.6287,226.3367,-21.4149,0.0047,93.5870,0.00000000,0.00000000,0.00000000,
1.132042,0.0312,0.2965,0.7630,0.1158,-0.2472,0.4511,0.0246,-0.0927,0.1016,935.8158,22.1900,-24.7262,-5.4562,32.6287,226.3367,-21.4149,0.0047,93.5870,0.00000000,0.00000000,0.00000000,
1.132667,0.0312,0.2965,0.7630,0.2711,-0.6702,-1.6574,0.0246,-0.0927,0.1016,935.8158,22.1900,-24.7262,-5.4562,32.6287,226.3367,-21.4149,0.0047,93.5870,0.00000000,0.00000000,0.00000000,
1.133175,0.0312,0.2965,0.7630,0.2711,-0.6702,-1.6574,0.0246,-0.0927,0.1016,935.8158,22.1900,-24.7262,-5.4562,32.6287,226.2535,-21.3768,0.2015,93.5870,0.00000000,0.00000000,0.00000000,
1.135720,0.0312,0.2965,0.7630,0.2711,-0.6702,-1.6574,0.0246,-0.0927,0.1016,935.8387,22.1900,-24.7262,-5.4562,32.6287,226.2535,-21.3768,0.2015,93.5870,0.00000000,0.00000000,0.00000000,
1.151861,0.0312,0.2965,0.7630,0.2711,-0.6702,-1.6574,-0.0321,0.0771,-0.0000,935.8387,22.1900,-24.7262,-5.4562,32.6287,226.2535,-21.3768,0.2015,93.5870,0.00000000,0.00000000,0.00000000,
1.199070,-0.0399,0.4107,1.1123,0.2711,-0.6702,-1.6574,-0.0321,0.0771,-0.0000,935.8387,22.1900,-24.7262,-5.4562,32.6287,226.2535,-21.3768,0.2015,93.5870,0.00000000,0.00000000,0.00000000,
1.199735,-0.0399,0.4107,1.1123,-0.3032,0.5069,1.7435,-0.0321,0.0771,-0.0000,935.8387,22.1900,-24.7262,-5.4562,32.6287,226.2535,-21.3768,0.2015,93.5870,0.00000000,0.00000000,0.00000000,
1.200276,-0.0399,0.4107,1.1123,-0.3032,0.5069,1.7435,-0.0321,0.0771,-0.0000,935.8387,22.1900,-24.7262,-5.4562,32.6287,225.7166,-21.0183,-0.5099,93.5870,0.00000000,0.00000000,0.00000000,
1.202248,-0.0399,0.4107,1.1123,-0.3032,0.5069,1.7435,-0.0321,0.0771,-0.0000,935.8387,22.3637,-24.4338,-5.4612,32.6287,225.7166,-21.0183,-0.5099,93.5870,0.00000000,0.00000000,0.00000000,
1.216232,-0.0399,0.4107,1.1123,-0.3032,0.5069,1.7435,-0.0321,0.0771,-0.0000,935.7899,22.3637,-24.4338,-5.4612,32.6287,225.7166,-21.0183,-0.5099,93.5870,0.00000000,0.00000000,0.00000000,
1.217884,-0.0399,0.4107,1.1123,-0.3032,0.5069,1.7435,-0.0773,0.0428,0.1515,935.7899,22.3637,-24.4338,-5.4612,32.6287,225.7166,-21.0183,-0.5099,93.5870,0.00000000,0.00000000,0.00000000,
1.255818,-0.0399,0.4107,1.1123,-0.3032,0.5069,1.7435,-0.0773,0.0428,0.1515,935.8322,22.3637,-24.4338,-5.4612,32.6287,225.7166,-21.0183,-0.5099,93.5870,0.00000000,0.00000000,0.00000000,
1.263556,-0.0399,0.4107,1.1123,-0.3032,0.5069,1.7435,-0.0773,0.0428,0.1515,935.8322,22.4412,-24.2450,-5.5700,32.6287,225.7166,-21.0183,-0.5099,93.5870,0.00000000,0.00000000,0.00000000,
1.266138,0.0786,0.2487,0.8654,-0.3032,0.5069,1.7435,-0.0773,0.0428,0.1515,935.8322,22.4412,-24.2450,-5.5700,32.6287,225.7166,-21.0183,-0.5099,93.5870,0.00000000,0.00000000,0.00000000,
1.266737,0.0786,0.2487,0.8654,0.6594,-1.1138,-0.6631,-0.0773,0.0428,0.1515,935.8322,22.4412,-24.2450,-5.5700,32.6287,225.7166,-21.0183,-0.5099,93.5870,0.00000000,0.00000000,0.00000000,
1.267235,0.0786,0.2487,0.8654,0.6594,-1.1138,-0.6631,-0.0773,0.0428,0.1515,935.8322,22.4412,-24.2450,-5.5700,32.6287,225.5969,-21.2266,0.6495,93.5870,0.00000000,0.00000000,0.00000000,
1.286306,0.0786,0.2487,0.8654,0.6594,-1.1138,-0.6631,0.0858,-0.1208,0.0064,935.8322,22.4412,-24.2450,-5.5700,32.6287,225.5969,-21.2266,0.6495,93.5870,0.00000000,0.00000000,0.00000000,
1.322626,0.0786,0.2487,0.8654,0.6594,-1.1138,-0.6631,0.0858,-0.1208,0.0064,935.8322,22.0025,-24.7375,-5.6937,32.6287,225.5969,-21.2266,0.6495,93.5870,0.00000000,0.00000000,0.00000000,
1.334457,-0.0151,0.4181,0.9822,0.6594,-1.1138,-0.6631,0.0858,-0.1208,0.0064,935.8322,22.0025,-24.7375,-5.6937,32.6287,225.5969,-21.2266,0.6495,93.5870,0.00000000,0.00000000,0.00000000,
1.336276,-0.0151,0.4181,0.9822,-0.0324,0.5529,0.4788,0.0858,-0.1208,0.0064,935.8322,22.0025,-24.7375,-5.6937,32.6287,225.5969,-21.2266,0.6495,93.5870,0.00000000,0.00000000,0.00000000,
1.337285,-0.0151,0.4181,0.9822,-0.0324,0.5529,0.4788,0.0858,-0.1208,0.0064,935.8322,22.0025,-24.7375,-5.6937,32.6287,225.0158,-21.1860,-0.6768,93.5870,0.00000000,0.00000000,0.00000000,
1.338011,-0.0151,0.4181,0.9822,-0.0324,0.5529,0.4788,0.0858,-0.1208,0.0064,935.8092,22.0025,-24.7375,-5.6937,32.6287,225.0158,-21.1860,-0.6768,93.5870,0.00000000,0.00000000,0.00000000,
1.353190,-0.0151,0.4181,0.9822,-0.0324,0.5529,0.4788,-0.0677,0.3137,0.1177,935.8092,22.0025,-24.7375,-5.6937,32.6287,225.0158,-21.1860,-0.6768,93.5870,0.00000000,0.00000000,0.00000000,
1.402055,-0.0151,0.4181,0.9822,-0.0324,0.5529,0.4788,-0.0677,0.3137,0.1177,935.8092,22.6450,-24.7987,-5.1388,32.6287,225.0158,-21.1860,-0.6768,93.7078,0.00000000,0.00000000,0.00000000,
1.403885,0.0086,0.2676,0.9530,-0.0324,0.5529,0.4788,-0.0677,0.3137,0.1177,935.8092,22.6450,-24.7987,-5.1388,32.6287,225.0158,-21.1860,-0.6768,93.7078,0.00000000,0.00000000,0.00000000,
1.404713,0.0086,0.2676,0.9530,0.0119,-0.9401,0.1995,-0.0677,0.3137,0.1177,935.8092,22.6450,-24.7987,-5.1388,32.6287,225.0158,-21.1860,-0.6768,93.7078,0.00000000,0.00000000,0.00000000,
1.405602,0.0086,0.2676,0.9530,0.0119,-0.9401,0.1995,-0.0677,0.3137,0.1177,935.8092,22.6450,-24.7987,-5.1388,32.6287,224.9133,-21.2944,0.4227,93.7078,0.00000000,0.00000000,0.00000000,
1.416239,0.0086,0.2676,0.9530,0.0119,-0.9401,0.1995,-0.0677,0.3137,0.1177,935.8203,22.6450,-24.7987,-5.1388,32.6287,224.9133,-21.2944,0.4227,93.7078,0.00000000,0.00000000,0.00000000,
1.420483,0.0086,0.2676,0.9530,0.0119,-0.9401,0.1995,0.0753,-0.2518,0.0640,935.8203,22.6450,-24.7987,-5.1388,32.6287,224.9133,-21.2944,0.4227,93.7078,0.00000000,0.00000000,0.00000000,
1.457006,0.0086,0.2676,0.9530,0.0119,-0.9401,0.1995,0.0753,-0.2518,0.0640,935.8462,22.6450,-24.7987,-5.1388,32.6287,224.9133,-21.2944,0.4227,93.7078,0.00000000,0.00000000,0.00000000,
1.462006,0.0086,0.2676,0.9530,0.0119,-0.9401,0.1995,0.0753,-0.2518,0.0640,935.8462,22.3912,-25.3550,-5.3263,32.6287,224.9133,-21.2944,0.4227,93.7078,0.00000000,0.00000000,0.00000000,
1.467951,0.0515,0.2985,0.8301,0.0119,-0.9401,0.1995,0.0753,-0.2518,0.0640,935.8462,22.3912,-25.3550,-5.3263,32.6287,224.9133,-21.2944,0.4227,93.7078,0.00000000,0.00000000,0.00000000,
1.469102,0.0515,0.2985,0.8301,0.5868,-0.6684,-0.9924,0.0753,-0.2518,0.0640,935.8462,22.3912,-25.3550,-5.3263,32.6287,224.9133,-21.2944,0.4227,93.7078,0.00000000,0.00000000,0.00000000,
1.469836,0.0515,0.2985,0.8301,0.5868,-0.6684,-0.9924,0.0753,-0.2518,0.0640,935.8462,22.3912,-25.3550,-5.3263,32.6287,224.5329,-21.4910,-0.4814,93.7078,0.00000000,0.00000000,0.00000000,
1.487680,0.0515,0.2985,0.8301,0.5868,-0.6684,-0.9924,0.0026,0.3919,0.0399,935.8462,22.3912,-25.3550,-5.3263,32.6287,224.5329,-21.4910,-0.4814,93.7078,0.00000000,0.00000000,0.00000000,
1.536197,0.0515,0.2985,0.8301,0.5868,-0.6684,-0.9924,0.0026,0.3919,0.0399,935.8139,22.3912,-25.3550,-5.3263,32.6287,224.5329,-21.4910,-0.4814,93.7078,0.00000000,0.00000000,0.00000000,
1.537934,-0.0432,0.2964,1.1059,0.5868,-0.6684,-0.9924,0.0026,0.3919,0.0399,935.8139,22.3912,-25.3550,-5.3263,32.6287,224.5329,-21.4910,-0.4814,93.7078,0.00000000,0.00000000,0.00000000,
1.538795,-0.0432,0.2964,1.1059,-0.4170,-0.6577,1.6975,0.0026,0.3919,0.0399,935.8139,22.3912,-25.3550,-5.3263,32.6287,224.5329,-21.4910,-0.4814,93.7078,0.00000000,0.00000000,0.00000000,
1.539538,-0.0432,0.2964,1.1059,-0.4170,-0.6577,1.6975,0.0026,0.3919,0.0399,935.8139,22.3912,-25.3550,-5.3263,32.6287,224.1157,-21.2907,-0.0354,93.7078,0.00000000,0.00000000,0.00000000,
1.542847,-0.0432,0.2964,1.1059,-0.4170,-0.6577,1.6975,0.0026,0.3919,0.0399,935.8139,22.4125,-25.3762,-5.1625,32.6287,224.1157,-21.2907,-0.0354,93.7078,0.00000000,0.00000000,0.00000000,
1.554842,-0.0432,0.2964,1.1059,-0.4170,-0.6577,1.6975,-0.0302,-0.3241,0.1513,935.8139,22.4125,-25.3762,-5.1625,32.6287,224.1157,-21.2907,-0.0354,93.7078,0.00000000,0.00000000,0.00000000,
1.600177,-0.0432,0.2964,1.1059,-0.4170,-0.6577,1.6975,-0.0302,-0.3241,0.1513,935.8139,21.8725,-24.9425,-5.3950,32.6287,224.1157,-21.2907,-0.0354,93.7078,0.00000000,0.00000000,0.00000000,
1.603087,0.0813,0.2401,0.7533,-0.4170,-0.6577,1.6975,-0.0302,-0.3241,0.1513,935.8139,21.8725,-24.9425,-5.3950,32.6287,224.1157,-21.2907,-0.0354,93.7078,0.00000000,0.00000000,0.00000000,
1.604326,0.0813,0.2401,0.7533,0.7318,-1.2300,-1.7496,-0.0302,-0.3241,0.1513,935.8139,21.8725,-24.9425,-5.3950,32.6287,224.1157,-21.2907,-0.0354,93.7078,0.00000000,0.00000000,0.00000000,
1.605348,0.0813,0.2401,0.7533,0.7318,-1.2300,-1.7496,-0.0302,-0.3241,0.1513,935.8139,21.8725,-24.9425,-5.3950,32.6287,224.1680,-21.4221,0.3799,93.7078,0.00000000,0.00000000,0.00000000,
1.616149,0.0813,0.2401,0.7533,0.7318,-1.2300,-1.7496,-0.0302,-0.3241,0.1513,935.8746,21.8725,-24.9425,-5.3950,32.6287,224.1680,-21.4221,0.3799,93.7078,0.00000000,0.00000000,0.00000000,
1.623976,0.0813,0.2401,0.7533,0.7318,-1.2300,-1.7496,0.0414,0.1741,-0.0212,935.8746,21.8725,-24.9425,-5.3950,32.6287,224.1680,-21.4221,0.3799,93.7078,0.00000000,0.00000000,0.00000000,
1.655846,0.0813,0.2401,0.7533,0.7318,-1.2300,-1.7496,0.0414,0.1741,-0.0212,935.7922,21.8725,-24.9425,-5.3950,32.6287,224.1680,-21.4221,0.3799,93.7078,0.00000000,0.00000000,0.00000000,
1.660366,0.0813,0.2401,0.7533,0.7318,-1.2300,-1.7496,0.0414,0.1741,-0.0212,935.7922,21.6700,-25.1637,-4.8675,32.6287,224.1680,-21.4221,0.3799,93.7078,0.00000000,0.00000000,0.00000000,
1.670006,-0.0560,0.4367,1.2452,0.7318,-1.2300,-1.7496,0.0414,0.1741,-0.0212,935.7922,21.6700,-25.1637,-4.8675,32.6287,224.1680,-21.4221,0.3799,93.7078,0.00000000,0.00000000,0.00000000,
1.671542,-0.0560,0.4367,1.2452,-0.3882,0.7291,3.0596,0.0414,0.1741,-0.0212,935.7922,21.6700,-25.1637,-4.8675,32.6287,224.1680,-21.4221,0.3799,93.7078,0.00000000,0.00000000,0.00000000,
1.672368,-0.0560,0.4367,1.2452,-0.3882,0.7291,3.0596,0.0414,0.1741,-0.0212,935.7922,21.6700,-25.1637,-4.8675,32.6287,223.3814,-21.2223,-0.9410,93.7078,0.00000000,0.00000000,0.00000000,
1.690558,-0.0560,0.4367,1.2452,-0.3882,0.7291,3.0596,-0.0819,0.1151,0.1762,935.7922,21.6700,-25.1637,-4.8675,32.6287,223.3814,-21.2223,-0.9410,93.7078,0.00000000,0.00000000,0.00000000,
1.735916,-0.0560,0.4367,1.2452,-0.3882,0.7291,3.0596,-0.0819,0.1151,0.1762,935.8392,21.6700,-25.1637,-4.8675,32.6287,223.3814,-21.2223,-0.9410,93.0139,0.00000000,0.00000000,0.00000000,
1.737979,0.0644,0.1682,0.9148,-0.3882,0.7291,3.0596,-0.0819,0.1151,0.1762,935.8392,21.6700,-25.1637,-4.8675,32.6287,223.3814,-21.2223,-0.9410,93.0139,0.00000000,0.00000000,0.00000000,
1.739152,0.0644,0.1682,0.9148,0.4017,-1.8701,-0.1901,-0.0819,0.1151,0.1762,935.8392,21.6700,-25.1637,-4.8675,32.6287,223.3814,-21.2223,-0.9410,93.0139,0.00000000,0.00000000,0.00000000,
1.739839,0.0644,0.1682,0.9148,0.4017,-1.8701,-0.1901,-0.0819,0.1151,0.1762,935.8392,21.6700,-25.1637,-4.8675,32.6287,223.1357,-21.0208,1.3402,93.0139,0.00000000,0.00000000,0.00000000,
1.740507,0.0644,0.1682,0.9148,0.4017,-1.8701,-0.1901,-0.0819,0.1151,0.1762,935.8392,21.7237,-25.4637,-5.2262,32.6287,223.1357,-21.0208,1.3402,93.0139,0.00000000,0.00000000,0.00000000,
1.756780,0.0644,0.1682,0.9148,0.4017,-1.8701,-0.1901,-0.0090,-0.3806,0.1533,935.8392,21.7237,-25.4637,-5.2262,32.6287,223.1357,-21.0208,1.3402,93.0139,0.00000000,0.00000000,0.00000000,
1.799038,0.0644,0.1682,0.9148,0.4017,-1.8701,-0.1901,-0.0090,-0.3806,0.1533,935.8392,21.2962,-25.8525,-5.3925,32.6287,223.1357,-21.0208,1.3402,93.0139,0.00000000,0.00000000,0.00000000,
1.804970,0.0465,0.2912,0.7564,0.4017,-1.8701,-0.1901,-0.0090,-0.3806,0.1533,935.8392,21.2962,-25.8525,-5.3925,32.6287,223.1357,-21.0208,1.3402,93.0139,0.00000000,0.00000000,0.00000000,
1.805902,0.0465,0.2912,0.7564,0.5817,-0.7539,-1.7084,-0.0090,-0.3806,0.1533,935.8392,21.2962,-25.8525,-5.3925,32.6287,223.1357,-21.0208,1.3402,93.0139,0.00000000,0.00000000,0.00000000,
1.806585,0.0465,0.2912,0.7564,0.5817,-0.7539,-1.7084,-0.0090,-0.3806,0.1533,935.8392,21.2962,-25.8525,-5.3925,32.6287,222.9000,-21.5816,-0.7394,93.0139,0.00000000,0.00000000,0.00000000,
1.816550,0.0465,0.2912,0.7564,0.5817,-0.7539,-1.7084,-0.0090,-0.3806,0.1533,935.8300,21.2962,-25.8525,-5.3925,32.6287,222.9000,-21.5816,-0.7394,93.0139,0.00000000,0.00000000,0.00000000,
1.825589,0.0465,0.2912,0.7564,0.5817,-0.7539,-1.7084,0.1275,0.7330,-0.0738,935.8300,21.2962,-25.8525,-5.3925,32.6287,222.9000,-21.5816,-0.7394,93.0139,0.00000000,0.00000000,0.00000000,
1.857664,0.0465,0.2912,0.7564,0.5817,-0.7539,-1.7084,0.1275,0.7330,-0.0738,935.8591,21.2962,-25.8525,-5.3925,32.6287,222.9000,-21.5816,-0.7394,93.0139,0.00000000,0.00000000,0.00000000,
1.859059,0.0465,0.2912,0.7564,0.5817,-0.7539,-1.7084,0.1275,0.7330,-0.0738,935.8591,21.3700,-25.5162,-4.6262,32.6287,222.9000,-21.5816,-0.7394,93.0139,0.00000000,0.00000000,0.00000000,
1.872358,-0.0931,0.3256,1.2383,0.5817,-0.7539,-1.7084,0.1275,0.7330,-0.0738,935.8591,21.3700,-25.5162,-4.6262,32.6287,222.9000,-21.5816,-0.7394,93.0139,0.00000000,0.00000000,0.00000000,
1.874061,-0.0931,0.3256,1.2383,-0.8566,-0.3981,3.0060,0.1275,0.7330,-0.0738,935.8591,21.3700,-25.5162,-4.6262,32.6287,222.9000,-21.5816,-0.7394,93.0139,0.00000000,0.00000000,0.00000000,
1.874851,-0.0931,0.3256,1.2383,-0.8566,-0.3981,3.0060,0.1275,0.7330,-0.0738,935.8591,21.3700,-25.5162,-4.6262,32.6287,222.0667,-21.4589,-0.3230,93.0139,0.00000000,0.00000000,0.00000000,
1.890678,-0.0931,0.3256,1.2383,-0.8566,-0.3981,3.0060,-0.0087,-0.4702,0.2410,935.8591,21.3700,-25.5162,-4.6262,32.6287,222.0667,-21.4589,-0.3230,93.0139,0.00000000,0.00000000,0.00000000,
1.936118,-0.0931,0.3256,1.2383,-0.8566,-0.3981,3.0060,-0.0087,-0.4702,0.2410,935.8445,21.3700,-25.5162,-4.6262,32.6287,222.0667,-21.4589,-0.3230,93.0139,0.00000000,0.00000000,0.00000000,
1.937575,-0.0931,0.3256,1.2383,-0.8566,-0.3981,3.0060,-0.0087,-0.4702,0.2410,935.8445,21.0637,-25.9925,-4.8112,32.6287,222.0667,-21.4589,-0.3230,93.0139,0.00000000,0.00000000,0.00000000,
1.940169,0.1547,0.2291,0.7826,-0.8566,-0.3981,3.0060,-0.0087,-0.4702,0.2410,935.8445,21.0637,-25.9925,-4.8112,32.6287,222.0667,-21.4589,-0.3230,93.0139,0.00000000,0.00000000,0.00000000,
1.941006,0.1547,0.2291,0.7826,1.4612,-1.4253,-1.4279,-0.0087,-0.4702,0.2410,935.8445,21.0637,-25.9925,-4.8112,32.6287,222.0667,-21.4589,-0.3230,93.0139,0.00000000,0.00000000,0.00000000,
1.941896,0.1547,0.2291,0.7826,1.4612,-1.4253,-1.4279,-0.0087,-0.4702,0.2410,935.8445,21.0637,-25.9925,-4.8112,32.6287,222.2063,-21.9759,0.3222,93.0139,0.00000000,0.00000000,0.00000000,
1.960134,0.1547,0.2291,0.7826,1.4612,-1.4253,-1.4279,0.1373,0.2636,-0.0084,935.8445,21.0637,-25.9925,-4.8112,32.6287,222.2063,-21.9759,0.3222,93.0139,0.00000000,0.00000000,0.00000000,
1.997353,0.1547,0.2291,0.7826,1.4612,-1.4253,-1.4279,0.1373,0.2636,-0.0084,935.8445,20.9725,-26.3512,-4.4875,32.6287,222.2063,-21.9759,0.3222,93.0139,0.00000000,0.00000000,0.00000000,
2.006197,-0.0422,0.3630,1.1576,1.4612,-1.4253,-1.4279,0.1373,0.2636,-0.0084,935.8445,20.9725,-26.3512,-4.4875,32.6287,222.2063,-21.9759,0.3222,94.2791,0.00000000,0.00000000,0.00000000,
2.007817,-0.0422,0.3630,1.1576,-0.3346,-0.0899,2.2377,0.1373,0.2636,-0.0084,935.8445,20.9725,-26.3512,-4.4875,32.6287,222.2063,-21.9759,0.3222,94.2791,0.00000000,0.00000000,0.00000000,
2.008598,-0.0422,0.3630,1.1576,-0.3346,-0.0899,2.2377,0.1373,0.2636,-0.0084,935.8445,20.9725,-26.3512,-4.4875,32.6287,221.2347,-21.8236,-0.4634,94.2791,0.00000000,0.00000000,0.00000000,
2.016020,-0.0422,0.3630,1.1576,-0.3346,-0.0899,2.2377,0.1373,0.2636,-0.0084,935.8167,20.9725,-26.3512,-4.4875,32.6287,221.2347,-21.8236,-0.4634,94.2791,0.00000000,0.00000000,0.00000000,
2.025004,-0.0422,0.3630,1.1576,-0.3346,-0.0899,2.2377,-0.1342,-0.1516,0.2204,935.8167,20.9725,-26.3512,-4.4875,32.6287,221.2347,-21.8236,-0.4634,94.2791,0.00000000,0.00000000,0.00000000,
2.056255,-0.0422,0.3630,1.1576,-0.3346,-0.0899,2.2377,-0.1342,-0.1516,0.2204,935.8525,20.9725,-26.3512,-4.4875,32.6287,221.2347,-21.8236,-0.4634,94.2791,0.00000000,0.00000000,0.00000000,
2.058296,-0.0422,0.3630,1.1576,-0.3346,-0.0899,2.2377,-0.1342,-0.1516,0.2204,935.8525,21.0775,-26.5262,-4.8500,32.6287,221.2347,-21.8236,-0.4634,94.2791,0.00000000,0.00000000,0.00000000,
2.073676,-0.0422,0.3630,1.1576,0.7845,-1.8169,-1.0562,-0.1342,-0.1516,0.2204,935.8525,21.0775,-26.5262,-4.8500,32.6287,221.2347,-21.8236,-0.4634,94.2791,0.00000000,0.00000000,0.00000000,
2.075084,0.0983,0.1813,0.8235,0.7845,-1.8169,-1.0562,-0.1342,-0.1516,0.2204,935.8525,21.0775,-26.5262,-4.8500,32.6287,221.2347,-21.8236,-0.4634,94.2791,0.00000000,0.00000000,0.00000000,
2.075828,0.0983,0.1813,0.8235,0.7845,-1.8169,-1.0562,-0.1342,-0.1516,0.2204,935.8525,21.0775,-26.5262,-4.8500,32.6287,221.6569,-21.4921,1.0448,94.2791,0.00000000,0.00000000,0.00000000,
2.092733,0.0983,0.1813,0.8235,0.7845,-1.8169,-1.0562,0.0350,-0.0182,-0.0499,935.8525,21.0775,-26.5262,-4.8500,32.6287,221.6569,-21.4921,1.0448,94.2791,0.00000000,0.00000000,0.00000000,
2.136729,0.0983,0.1813,0.8235,0.7845,-1.8169,-1.0562,0.0350,-0.0182,-0.0499,935.8653,21.0775,-26.5262,-4.8500,32.6287,221.6569,-21.4921,1.0448,94.2791,0.00000000,0.00000000,0.00000000,
2.138385,0.0983,0.1813,0.8235,0.7845,-1.8169,-1.0562,0.0350,-0.0182,-0.0499,935.8653,20.8800,-26.0537,-5.4812,32.6287,221.6569,-21.4921,1.0448,94.2791,0.00000000,0.00000000,0.00000000,
2.140078,-0.0291,0.3238,1.0326,0.7845,-1.8169,-1.0562,0.0350,-0.0182,-0.0499,935.8653,20.8800,-26.0537,-5.4812,32.6287,221.6569,-21.4921,1.0448,94.2791,0.00000000,0.00000000,0.00000000,
2.142288,-0.0291,0.3238,1.0326,-0.1496,-0.4833,1.0180,0.0350,-0.0182,-0.0499,935.8653,20.8800,-26.0537,-5.4812,32.6287,221.6569,-21.4921,1.0448,94.2791,0.00000000,0.00000000,0.00000000,
2.143206,-0.0291,0.3238,1.0326,-0.1496,-0.4833,1.0180,0.0350,-0.0182,-0.0499,935.8653,20.8800,-26.0537,-5.4812,32.6287,220.6065,-21.8862,-0.7892,94.2791,0.00000000,0.00000000,0.00000000,
2.159826,-0.0291,0.3238,1.0326,-0.1496,-0.4833,1.0180,0.0005,0.2741,0.1588,935.8653,20.8800,-26.0537,-5.4812,32.6287,220.6065,-21.8862,-0.7892,94.2791,0.00000000,0.00000000,0.00000000,
2.196511,-0.0291,0.3238,1.0326,-0.1496,-0.4833,1.0180,0.0005,0.2741,0.1588,935.8653,20.9200,-26.1012,-4.7912,32.6287,220.6065,-21.8862,-0.7892,94.2791,0.00000000,0.00000000,0.00000000,
2.208385,0.0313,0.2455,0.9925,-0.1496,-0.4833,1.0180,0.0005,0.2741,0.1588,935.8653,20.9200,-26.1012,-4.7912,32.6287,220.6065,-21.8862,-0.7892,94.2791,0.00000000,0.00000000,0.00000000,
2.209915,0.0313,0.2455,0.9925,0.1978,-1.1993,0.6034,0.0005,0.2741,0.1588,935.8653,20.9200,-26.1012,-4.7912,32.6287,220.6065,-21.8862,-0.7892,94.2791,0.00000000,0.00000000,0.00000000,
2.210593,0.0313,0.2455,0.9925,0.1978,-1.1993,0.6034,0.0005,0.2741,0.1588,935.8653,20.9200,-26.1012,-4.7912,32.6287,220.8937,-21.5650,0.6329,94.2791,0.00000000,0.00000000,0.00000000,
2.215817,0.0313,0.2455,0.9925,0.1978,-1.1993,0.6034,0.0005,0.2741,0.1588,935.8900,20.9200,-26.1012,-4.7912,32.6287,220.8937,-21.5650,0.6329,94.2791,0.00000000,0.00000000,0.00000000,
2.226751,0.0313,0.2455,0.9925,0.1978,-1.1993,0.6034,-0.0060,-0.2680,0.0130,935.8900,20.9200,-26.1012,-4.7912,32.6287,220.8937,-21.5650,0.6329,94.2791,0.00000000,0.00000000,0.00000000,
2.257273,0.0313,0.2455,0.9925,0.1978,-1.1993,0.6034,-0.0060,-0.2680,0.0130,935.8900,20.7887,-26.1950,-4.9425,32.6287,220.8937,-21.5650,0.6329,94.2791,0.00000000,0.00000000,0.00000000,
2.259101,0.0313,0.2455,0.9925,0.1978,-1.1993,0.6034,-0.0060,-0.2680,0.0130,935.9106,20.7887,-26.1950,-4.9425,32.6287,220.8937,-21.5650,0.6329,94.2791,0.00000000,0.00000000,0.00000000,
2.276116,0.0510,0.3015,0.8752,0.1978,-1.1993,0.6034,-0.0060,-0.2680,0.0130,935.9106,20.7887,-26.1950,-4.9425,32.6287,220.8937,-21.5650,0.6329,94.2791,0.00000000,0.00000000,0.00000000,
2.277865,0.0510,0.3015,0.8752,0.4415,-0.6596,-0.5429,-0.0060,-0.2680,0.0130,935.9106,20.7887,-26.1950,-4.9425,32.6287,220.8937,-21.5650,0.6329,94.2791,0.00000000,0.00000000,0.00000000,
2.278883,0.0510,0.3015,0.8752,0.4415,-0.6596,-0.5429,-0.0060,-0.2680,0.0130,935.9106,20.7887,-26.1950,-4.9425,32.6287,220.4785,-21.6200,0.3423,94.2791,0.00000000,0.00000000,0.00000000,
2.294386,0.0510,0.3015,0.8752,0.4415,-0.6596,-0.5429,-0.0573,0.1422,0.0907,935.9106,20.7887,-26.1950,-4.9425,32.6287,220.4785,-21.6200,0.3423,94.2791,0.00000000,0.00000000,0.00000000,
2.334860,0.0510,0.3015,0.8752,0.4415,-0.6596,-0.5429,-0.0573,0.1422,0.0907,935.9106,20.7125,-26.3737,-4.8212,32.6287,220.4785,-21.6200,0.3423,94.4351,0.00000000,0.00000000,0.00000000,
2.336635,0.0510,0.3015,0.8752,0.4415,-0.6596,-0.5429,-0.0573,0.1422,0.0907,935.9050,20.7125,-26.3737,-4.8212,32.6287,220.4785,-21.6200,0.3423,94.4351,0.00000000,0.00000000,0.00000000,
2.343071,0.0057,0.2874,1.1128,0.4415,-0.6596,-0.5429,-0.0573,0.1422,0.0907,935.9050,20.7125,-26.3737,-4.8212,32.6287,220.4785,-21.6200,0.3423,94.4351,0.00000000,0.00000000,0.00000000,
2.344596,0.0057,0.2874,1.1128,-0.0174,-0.7709,1.7755,-0.0573,0.1422,0.0907,935.9050,20.7125,-26.3737,-4.8212,32.6287,220.4785,-21.6200,0.3423,94.4351,0.00000000,0.00000000,0.00000000,
2.345592,0.0057,0.2874,1.1128,-0.0174,-0.7709,1.7755,-0.0573,0.1422,0.0907,935.9050,20.7125,-26.3737,-4.8212,32.6287,220.2024,-21.4482,0.4310,94.4351,0.00000000,0.00000000,0.00000000,
2.361678,0.0057,0.2874,1.1128,-0.0174,-0.7709,1.7755,0.0162,-0.0527,0.0875,935.9050,20.7125,-26.3737,-4.8212,32.6287,220.2024,-21.4482,0.4310,94.4351,0.00000000,0.00000000,0.00000000,
2.395194,0.0057,0.2874,1.1128,-0.0174,-0.7709,1.7755,0.0162,-0.0527,0.0875,935.9050,20.3037,-26.6925,-5.0363,32.6287,220.2024,-21.4482,0.4310,94.4351,0.00000000,0.00000000,0.00000000,
2.409498,0.0820,0.2248,0.9032,-0.0174,-0.7709,1.7755,0.0162,-0.0527,0.0875,935.9050,20.3037,-26.6925,-5.0363,32.6287,220.2024,-21.4482,0.4310,94.4351,0.00000000,0.00000000,0.00000000,
2.410979,0.0820,0.2248,0.9032,0.6626,-1.4188,-0.2649,0.0162,-0.0527,0.0875,935.9050,20.3037,-26.6925,-5.0363,32.6287,220.2024,-21.4482,0.4310,94.4351,0.00000000,0.00000000,0.00000000,
2.411780,0.0820,0.2248,0.9032,0.6626,-1.4188,-0.2649,0.0162,-0.0527,0.0875,935.9050,20.3037,-26.6925,-5.0363,32.6287,219.9769,-21.6696,0.8279,94.4351,0.00000000,0.00000000,0.00000000,
2.416629,0.0820,0.2248,0.9032,0.6626,-1.4188,-0.2649,0.0162,-0.0527,0.0875,935.8853,20.3037,-26.6925,-5.0363,32.6287,219.9769,-21.6696,0.8279,94.4351,0.00000000,0.00000000,0.00000000,
2.428396,0.0820,0.2248,0.9032,0.6626,-1.4188,-0.2649,0.0333,0.0034,0.0510,935.8853,20.3037,-26.6925,-5.0363,32.6287,219.9769,-21.6696,0.8279,94.4351,0.00000000,0.00000000,0.00000000,
2.456321,0.0820,0.2248,0.9032,0.6626,-1.4188,-0.2649,0.0333,0.0034,0.0510,935.9350,20.3037,-26.6925,-5.0363,32.6287,219.9769,-21.6696,0.8279,94.4351,0.00000000,0.00000000,0.00000000,
2.473614,0.0820,0.2248,0.9032,0.6626,-1.4188,-0.2649,0.0333,0.0034,0.0510,935.9350,20.3662,-26.7837,-4.7613,32.6287,219.9769,-21.6696,0.8279,94.4351,0.00000000,0.00000000,0.00000000,
2.475871,0.0239,0.2698,1.0098,0.6626,-1.4188,-0.2649,0.0333,0.0034,0.0510,935.9350,20.3662,-26.7837,-4.7613,32.6287,219.9769,-21.6696,0.8279,94.4351,0.00000000,0.00000000,0.00000000,
2.476767,0.0239,0.2698,1.0098,0.1805,-0.9559,0.7708,0.0333,0.0034,0.0510,935.9350,20.3662,-26.7837,-4.7613,32.6287,219.9769,-21.6696,0.8279,94.4351,0.00000000,0.00000000,0.00000000,
2.478160,0.0239,0.2698,1.0098,0.1805,-0.9559,0.7708,0.0333,0.0034,0.0510,935.9350,20.3662,-26.7837,-4.7613,32.6287,219.5063,-21.5290,0.3116,94.4351,0.00000000,0.00000000,0.00000000,
2.495795,0.0239,0.2698,1.0098,0.1805,-0.9559,0.7708,-0.0322,0.0956,0.0776,935.9350,20.3662,-26.7837,-4.7613,32.6287,219.5063,-21.5290,0.3116,94.4351,0.00000000,0.00000000,0.00000000,
2.534008,0.0239,0.2698,1.0098,0.1805,-0.9559,0.7708,-0.0322,0.0956,0.0776,935.9350,20.3075,-26.3950,-4.9137,32.6287,219.5063,-21.5290,0.3116,94.4351,0.00000000,0.00000000,0.00000000,
2.535882,0.0239,0.2698,1.0098,0.1805,-0.9559,0.7708,-0.0322,0.0956,0.0776,935.9418,20.3075,-26.3950,-4.9137,32.6287,219.5063,-21.5290,0.3116,94.4351,0.00000000,0.00000000,0.00000000,
2.543789,0.0539,0.2208,0.8444,0.1805,-0.9559,0.7708,-0.0322,0.0956,0.0776,935.9418,20.3075,-26.3950,-4.9137,32.6287,219.5063,-21.5290,0.3116,94.4351,0.00000000,0.00000000,0.00000000,
2.545130,0.0539,0.2208,0.8444,0.3955,-1.4328,-0.8504,-0.0322,0.0956,0.0776,935.9418,20.3075,-26.3950,-4.9137,32.6287,219.5063,-21.5290,0.3116,94.4351,0.00000000,0.00000000,0.00000000,
2.545917,0.0539,0.2208,0.8444,0.3955,-1.4328,-0.8504,-0.0322,0.0956,0.0776,935.9418,20.3075,-26.3950,-4.9137,32.6287,219.5464,-21.5102,0.7745,94.4351,0.00000000,0.00000000,0.00000000,
2.563231,0.0539,0.2208,0.8444,0.3955,-1.4328,-0.8504,-0.0218,-0.0331,0.0137,935.9418,20.3075,-26.3950,-4.9137,32.6287,219.5464,-21.5102,0.7745,94.4351,0.00000000,0.00000000,0.00000000,
2.593336,0.0539,0.2208,0.8444,0.3955,-1.4328,-0.8504,-0.0218,-0.0331,0.0137,935.9418,20.2787,-26.7762,-4.7962,32.6287,219.5464,-21.5102,0.7745,94.4351,0.00000000,0.00000000,0.00000000,
2.611248,0.0539,0.2208,0.8444,-0.0144,-0.6672,1.1719,-0.0218,-0.0331,0.0137,935.9418,20.2787,-26.7762,-4.7962,32.6287,219.5464,-21.5102,0.7745,95.2523,0.00000000,0.00000000,0.00000000,
2.612818,0.0539,0.2208,0.8444,-0.0144,-0.6672,1.1719,-0.0218,-0.0331,0.0137,935.9418,20.2787,-26.7762,-4.7962,32.6287,218.9852,-21.4065,-0.2394,95.2523,0.00000000,0.00000000,0.00000000,
2.613588,-0.0057,0.2973,1.0516,-0.0144,-0.6672,1.1719,-0.0218,-0.0331,0.0137,935.9418,20.2787,-26.7762,-4.7962,32.6287,218.9852,-21.4065,-0.2394,95.2523,0.00000000,0.00000000,0.00000000,
2.615981,-0.0057,0.2973,1.0516,-0.0144,-0.6672,1.1719,-0.0218,-0.0331,0.0137,935.9620,20.2787,-26.7762,-4.7962,32.6287,218.9852,-21.4065,-0.2394,95.2523,0.00000000,0.00000000,0.00000000,
2.631031,-0.0057,0.2973,1.0516,-0.0144,-0.6672,1.1719,-0.0124,0.2078,0.1077,935.9620,20.2787,-26.7762,-4.7962,32.6287,218.9852,-21.4065,-0.2394,95.2523,0.00000000,0.00000000,0.00000000,
2.656083,-0.0057,0.2973,1.0516,-0.0144,-0.6672,1.1719,-0.0124,0.2078,0.1077,935.9516,20.2787,-26.7762,-4.7962,32.6287,218.9852,-21.4065,-0.2394,95.2523,0.00000000,0.00000000,0.00000000,
2.672690,-0.0057,0.2973,1.0516,-0.0144,-0.6672,1.1719,-0.0124,0.2078,0.1077,935.9516,20.0525,-26.8212,-4.6188,32.6287,218.9852,-21.4065,-0.2394,95.2523,0.00000000,0.00000000,0.00000000,
2.677841,0.0366,0.1757,0.9412,-0.0144,-0.6672,1.1719,-0.0124,0.2078,0.1077,935.9516,20.0525,-26.8212,-4.6188,32.6287,218.9852,-21.4065,-0.2394,95.2523,0.00000000,0.00000000,0.00000000,
2.679097,0.0366,0.1757,0.9412,0.1336,-1.8139,0.0758,-0.0124,0.2078,0.1077,935.9516,20.0525,-26.8212,-4.6188,32.6287,218.9852,-21.4065,-0.2394,95.2523,0.00000000,0.00000000,0.00000000,
2.680430,0.0366,0.1757,0.9412,0.1336,-1.8139,0.0758,-0.0124,0.2078,0.1077,935.9516,20.0525,-26.8212,-4.6188,32.6287,219.0522,-21.1318,1.3151,95.2523,0.00000000,0.00000000,0.00000000,
2.697346,0.0366,0.1757,0.9412,0.1336,-1.8139,0.0758,-0.0843,-0.3355,0.0480,935.9516,20.0525,-26.8212,-4.6188,32.6287,219.0522,-21.1318,1.3151,95.2523,0.00000000,0.00000000,0.00000000,
2.732361,0.0366,0.1757,0.9412,0.1336,-1.8139,0.0758,-0.0843,-0.3355,0.0480,935.9516,19.8775,-27.0012,-5.7987,32.6287,219.0522,-21.1318,1.3151,95.2523,0.00000000,0.00000000,0.00000000,
2.735696,0.0366,0.1757,0.9412,0.1336,-1.8139,0.0758,-0.0843,-0.3355,0.0480,935.9008,19.8775,-27.0012,-5.7987,32.6287,219.0522,-21.1318,1.3151,95.2523,0.00000000,0.00000000,0.00000000,
2.745510,0.0291,0.2688,1.0256,0.1336,-1.8139,0.0758,-0.0843,-0.3355,0.0480,935.9008,19.8775,-27.0012,-5.7987,32.6287,219.0522,-21.1318,1.3151,95.2523,0.00000000,0.00000000,0.00000000,
2.747146,0.0291,0.2688,1.0256,0.2510,-0.8800,0.8915,-0.0843,-0.3355,0.0480,935.9008,19.8775,-27.0012,-5.7987,32.6287,219.0522,-21.1318,1.3151,95.2523,0.00000000,0.00000000,0.00000000,
2.748016,0.0291,0.2688,1.0256,0.2510,-0.8800,0.8915,-0.0843,-0.3355,0.0480,935.9008,19.8775,-27.0012,-5.7987,32.6287,218.5306,-20.9922,0.1988,95.2523,0.00000000,0.00000000,0.00000000,
2.764833,0.0291,0.2688,1.0256,0.2510,-0.8800,0.8915,-0.0139,0.3198,0.0843,935.9008,19.8775,-27.0012,-5.7987,32.6287,218.5306,-20.9922,0.1988,95.2523,0.00000000,0.00000000,0.00000000,
2.792165,0.0291,0.2688,1.0256,0.2510,-0.8800,0.8915,-0.0139,0.3198,0.0843,935.9008,19.8687,-26.8937,-5.3200,32.6287,218.5306,-20.9922,0.1988,95.2523,0.00000000,0.00000000,0.00000000,
2.812551,0.0291,0.2688,1.0256,0.0313,-1.5269,1.2522,-0.0139,0.3198,0.0843,935.9008,19.8687,-26.8937,-5.3200,32.6287,218.5306,-20.9922,0.1988,95.2523,0.00000000,0.00000000,0.00000000,
2.813628,0.0291,0.2688,1.0256,0.0313,-1.5269,1.2522,-0.0139,0.3198,0.0843,935.9008,19.8687,-26.8937,-5.3200,32.6287,218.3667,-21.0002,1.2583,95.2523,0.00000000,0.00000000,0.00000000,
2.814453,0.0251,0.2028,1.0621,0.0313,-1.5269,1.2522,-0.0139,0.3198,0.0843,935.9008,19.8687,-26.8937,-5.3200,32.6287,218.3667,-21.0002,1.2583,95.2523,0.00000000,0.00000000,0.00000000,
2.816446,0.0251,0.2028,1.0621,0.0313,-1.5269,1.2522,-0.0139,0.3198,0.0843,935.8912,19.8687,-26.8937,-5.3200,32.6287,218.3667,-21.0002,1.2583,95.2523,0.00000000,0.00000000,0.00000000,
2.832294,0.0251,0.2028,1.0621,0.0313,-1.5269,1.2522,-0.0029,-0.3189,0.0863,935.8912,19.8687,-26.8937,-5.3200,32.6287,218.3667,-21.0002,1.2583,95.2523,0.00000000,0.00000000,0.00000000,
2.855742,0.0251,0.2028,1.0621,0.0313,-1.5269,1.2522,-0.0029,-0.3189,0.0863,935.9001,19.8687,-26.8937,-5.3200,32.6287,218.3667,-21.0002,1.2583,95.2523,0.00000000,0.00000000,0.00000000,
2.872431,0.0251,0.2028,1.0621,0.0313,-1.5269,1.2522,-0.0029,-0.3189,0.0863,935.9001,20.0513,-26.6525,-5.4225,32.6287,218.3667,-21.0002,1.2583,95.2523,0.00000000,0.00000000,0.00000000,
2.879287,0.1005,0.2780,0.9251,0.0313,-1.5269,1.2522,-0.0029,-0.3189,0.0863,935.9001,20.0513,-26.6525,-5.4225,32.6287,218.3667,-21.0002,1.2583,95.2523,0.00000000,0.00000000,0.00000000,
2.879978,0.1005,0.2780,0.9251,0.8492,-0.8213,-0.0796,-0.0029,-0.3189,0.0863,935.9001,20.0513,-26.6525,-5.4225,32.6287,218.3667,-21.0002,1.2583,95.2523,0.00000000,0.00000000,0.00000000,
2.880656,0.1005,0.2780,0.9251,0.8492,-0.8213,-0.0796,-0.0029,-0.3189,0.0863,935.9001,20.0513,-26.6525,-5.4225,32.6287,218.2783,-21.1915,0.7905,95.2523,0.00000000,0.00000000,0.00000000,
2.898330,0.1005,0.2780,0.9251,0.8492,-0.8213,-0.0796,0.0838,0.2978,0.0438,935.9001,20.0513,-26.6525,-5.4225,32.6287,218.2783,-21.1915,0.7905,95.2523,0.00000000,0.00000000,0.00000000,
2.930304,0.1005,0.2780,0.9251,0.8492,-0.8213,-0.0796,0.0838,0.2978,0.0438,935.9001,19.9075,-26.5662,-5.1788,32.6287,218.2783,-21.1915,0.7905,95.2854,0.00000000,0.00000000,0.00000000,
2.935846,0.1005,0.2780,0.9251,0.8492,-0.8213,-0.0796,0.0838,0.2978,0.0438,935.8951,19.9075,-26.5662,-5.1788,32.6287,218.2783,-21.1915,0.7905,95.2854,0.00000000,0.00000000,0.00000000,
2.946372,0.0084,0.2146,1.0975,0.8492,-0.8213,-0.0796,0.0838,0.2978,0.0438,935.8951,19.9075,-26.5662,-5.1788,32.6287,218.2783,-21.1915,0.7905,95.2854,0.00000000,0.00000000,0.00000000,
2.947707,0.0084,0.2146,1.0975,-0.1574,-1.4634,1.6195,0.0838,0.2978,0.0438,935.8951,19.9075,-26.5662,-5.1788,32.6287,218.2783,-21.1915,0.7905,95.2854,0.00000000,0.00000000,0.00000000,
2.948408,0.0084,0.2146,1.0975,-0.1574,-1.4634,1.6195,0.0838,0.2978,0.0438,935.8951,19.9075,-26.5662,-5.1788,32.6287,217.9392,-21.3234,1.4030,95.2854,0.00000000,0.00000000,0.00000000,
2.966391,0.0084,0.2146,1.0975,-0.1574,-1.4634,1.6195,0.0165,-0.3196,0.0802,935.8951,19.9075,-26.5662,-5.1788,32.6287,217.9392,-21.3234,1.4030,95.2854,0.00000000,0.00000000,0.00000000,
2.991327,0.0084,0.2146,1.0975,-0.1574,-1.4634,1.6195,0.0165,-0.3196,0.0802,935.8951,19.8337,-26.9625,-5.5312,32.6287,217.9392,-21.3234,1.4030,95.2854,0.00000000,0.00000000,0.00000000,
3.014209,0.0972,0.2199,0.8370,-0.1574,-1.4634,1.6195,0.0165,-0.3196,0.0802,935.8951,19.8337,-26.9625,-5.5312,32.6287,217.9392,-21.3234,1.4030,95.2854,0.00000000,0.00000000,0.00000000,
3.016470,0.0972,0.2199,0.8370,0.6736,-1.4338,-0.9230,0.0165,-0.3196,0.0802,935.8951,19.8337,-26.9625,-5.5312,32.6287,217.9392,-21.3234,1.4030,95.2854,0.00000000,0.00000000,0.00000000,
3.017499,0.0972,0.2199,0.8370,0.6736,-1.4338,-0.9230,0.0165,-0.3196,0.0802,935.8951,19.8337,-26.9625,-5.5312,32.6287,218.0580,-21.4715,1.6338,95.2854,0.00000000,0.00000000,0.00000000,
3.018407,0.0972,0.2199,0.8370,0.6736,-1.4338,-0.9230,0.0165,-0.3196,0.0802,935.9089,19.8337,-26.9625,-5.5312,32.6287,218.0580,-21.4715,1.6338,95.2854,0.00000000,0.00000000,0.00000000,
3.033459,0.0972,0.2199,0.8370,0.6736,-1.4338,-0.9230,0.0538,0.1402,0.0159,935.9089,19.8337,-26.9625,-5.5312,32.6287,218.0580,-21.4715,1.6338,95.2854,0.00000000,0.00000000,0.00000000,
3.056306,0.0972,0.2199,0.8370,0.6736,-1.4338,-0.9230,0.0538,0.1402,0.0159,935.8889,19.8337,-26.9625,-5.5312,32.6287,218.0580,-21.4715,1.6338,95.2854,0.00000000,0.00000000,0.00000000,
3.069287,0.0972,0.2199,0.8370,0.6736,-1.4338,-0.9230,0.0538,0.1402,0.0159,935.8889,19.7113,-26.9875,-4.9650,32.6287,218.0580,-21.4715,1.6338,95.2854,0.00000000,0.00000000,0.00000000,
3.081006,0.0012,0.2638,1.0386,0.6736,-1.4338,-0.9230,0.0538,0.1402,0.0159,935.8889,19.7113,-26.9875,-4.9650,32.6287,218.0580,-21.4715,1.6338,95.2854,0.00000000,0.00000000,0.00000000,
3.082270,0.0012,0.2638,1.0386,-0.1893,-0.9844,1.0429,0.0538,0.1402,0.0159,935.8889,19.7113,-26.9875,-4.9650,32.6287,218.0580,-21.4715,1.6338,95.2854,0.00000000,0.00000000,0.00000000,
3.083394,0.0012,0.2638,1.0386,-0.1893,-0.9844,1.0429,0.0538,0.1402,0.0159,935.8889,19.7113,-26.9875,-4.9650,32.6287,217.4064,-21.3463,1.1719,95.2854,0.00000000,0.00000000,0.00000000,
3.100428,0.0012,0.2638,1.0386,-0.1893,-0.9844,1.0429,-0.0739,-0.0125,0.1155,935.8889,19.7113,-26.9875,-4.9650,32.6287,217.4064,-21.3463,1.1719,95.2854,0.00000000,0.00000000,0.00000000,
3.129542,0.0012,0.2638,1.0386,-0.1893,-0.9844,1.0429,-0.0739,-0.0125,0.1155,935.8889,19.6287,-27.1012,-5.1062,32.6287,217.4064,-21.3463,1.1719,95.2854,0.00000000,0.00000000,0.00000000,
3.136168,0.0012,0.2638,1.0386,-0.1893,-0.9844,1.0429,-0.0739,-0.0125,0.1155,935.9423,19.6287,-27.1012,-5.1062,32.6287,217.4064,-21.3463,1.1719,95.2854,0.00000000,0.00000000,0.00000000,
3.149252,0.0884,0.2346,0.9589,-0.1893,-0.9844,1.0429,-0.0739,-0.0125,0.1155,935.9423,19.6287,-27.1012,-5.1062,32.6287,217.4064,-21.3463,1.1719,95.2854,0.00000000,0.00000000,0.00000000,
3.150449,0.0884,0.2346,0.9589,0.5788,-1.1997,0.2368,-0.0739,-0.0125,0.1155,935.9423,19.6287,-27.1012,-5.1062,32.6287,217.4064,-21.3463,1.1719,95.2854,0.00000000,0.00000000,0.00000000,
3.151365,0.0884,0.2346,0.9589,0.5788,-1.1997,0.2368,-0.0739,-0.0125,0.1155,935.9423,19.6287,-27.1012,-5.1062,32.6287,217.3187,-20.9044,1.6833,95.2854,0.00000000,0.00000000,0.00000000,
3.168382,0.0884,0.2346,0.9589,0.5788,-1.1997,0.2368,-0.1170,0.0069,0.1040,935.9423,19.6287,-27.1012,-5.1062,32.6287,217.3187,-20.9044,1.6833,95.2854,0.00000000,0.00000000,0.00000000,
3.189693,0.0884,0.2346,0.9589,0.5788,-1.1997,0.2368,-0.1170,0.0069,0.1040,935.9423,19.7087,-26.8100,-5.4200,32.6287,217.3187,-20.9044,1.6833,95.2854,0.00000000,0.00000000,0.00000000,
3.216243,0.0884,0.2346,0.9589,0.5788,-1.1997,0.2368,-0.1170,0.0069,0.1040,935.9714,19.7087,-26.8100,-5.4200,32.6287,217.3187,-20.9044,1.6833,95.9930,0.00000000,0.00000000,0.00000000,
3.217270,0.0138,0.2829,0.9804,0.5788,-1.1997,0.2368,-0.1170,0.0069,0.1040,935.9714,19.7087,-26.8100,-5.4200,32.6287,217.3187,-20.9044,1.6833,95.9930,0.00000000,0.00000000,0.00000000,
3.217990,0.0138,0.2829,0.9804,-0.2676,-0.5296,0.3791,-0.1170,0.0069,0.1040,935.9714,19.7087,-26.8100,-5.4200,32.6287,217.3187,-20.9044,1.6833,95.9930,0.00000000,0.00000000,0.00000000,
3.218767,0.0138,0.2829,0.9804,-0.2676,-0.5296,0.3791,-0.1170,0.0069,0.1040,935.9714,19.7087,-26.8100,-5.4200,32.6287,216.3283,-19.6892,2.3547,95.9930,0.00000000,0.00000000,0.00000000,
3.234993,0.0138,0.2829,0.9804,-0.2676,-0.5296,0.3791,-0.5000,-0.2691,0.4241,935.9714,19.7087,-26.8100,-5.4200,32.6287,216.3283,-19.6892,2.3547,95.9930,0.00000000,0.00000000,0.00000000,
3.255971,0.0138,0.2829,0.9804,-0.2676,-0.5296,0.3791,-0.5000,-0.2691,0.4241,935.9988,19.7087,-26.8100,-5.4200,32.6287,216.3283,-19.6892,2.3547,95.9930,0.00000000,0.00000000,0.00000000,
3.268291,0.0138,0.2829,0.9804,-0.2676,-0.5296,0.3791,-0.5000,-0.2691,0.4241,935.9988,18.5075,-27.2887,-5.9987,32.6287,216.3283,-19.6892,2.3547,95.9930,0.00000000,0.00000000,0.00000000,
3.283590,0.0138,0.2829,0.9804,1.1686,-1.4307,-0.7463,-0.5000,-0.2691,0.4241,935.9988,18.5075,-27.2887,-5.9987,32.6287,216.3283,-19.6892,2.3547,95.9930,0.00000000,0.00000000,0.00000000,
3.284992,0.0138,0.2829,0.9804,1.1686,-1.4307,-0.7463,-0.5000,-0.2691,0.4241,935.9988,18.5075,-27.2887,-5.9987,32.6287,214.4762,-17.5410,3.7352,95.9930,0.00000000,0.00000000,0.00000000,
3.285838,0.1845,0.1550,0.8763,1.1686,-1.4307,-0.7463,-0.5000,-0.2691,0.4241,935.9988,18.5075,-27.2887,-5.9987,32.6287,214.4762,-17.5410,3.7352,95.9930,0.00000000,0.00000000,0.00000000,
3.302080,0.1845,0.1550,0.8763,1.1686,-1.4307,-0.7463,-0.3010,0.2011,0.5392,935.9988,18.5075,-27.2887,-5.9987,32.6287,214.4762,-17.5410,3.7352,95.9930,0.00000000,0.00000000,0.00000000,
3.328204,0.1845,0.1550,0.8763,1.1686,-1.4307,-0.7463,-0.3010,0.2011,0.5392,935.9988,17.5050,-27.9012,-6.7925,32.6287,214.4762,-17.5410,3.7352,95.9930,0.00000000,0.00000000,0.00000000,
3.336565,0.1845,0.1550,0.8763,1.1686,-1.4307,-0.7463,-0.3010,0.2011,0.5392,936.0323,17.5050,-27.9012,-6.7925,32.6287,214.4762,-17.5410,3.7352,95.9930,0.00000000,0.00000000,0.00000000,
3.350720,0.0352,0.2283,1.0196,1.1686,-1.4307,-0.7463,-0.3010,0.2011,0.5392,936.0323,17.5050,-27.9012,-6.7925,32.6287,214.4762,-17.5410,3.7352,95.9930,0.00000000,0.00000000,0.00000000,
3.352378,0.0352,0.2283,1.0196,0.2594,-0.7347,0.6431,-0.3010,0.2011,0.5392,936.0323,17.5050,-27.9012,-6.7925,32.6287,214.4762,-17.5410,3.7352,95.9930,0.00000000,0.00000000,0.00000000,
3.353280,0.0352,0.2283,1.0196,0.2594,-0.7347,0.6431,-0.3010,0.2011,0.5392,936.0323,17.5050,-27.9012,-6.7925,32.6287,211.2818,-17.6355,0.4995,95.9930,0.00000000,0.00000000,0.00000000,
3.369268,0.0352,0.2283,1.0196,0.2594,-0.7347,0.6431,-0.0203,0.8822,0.5120,936.0323,17.5050,-27.9012,-6.7925,32.6287,211.2818,-17.6355,0.4995,95.9930,0.00000000,0.00000000,0.00000000,
3.408489,0.0352,0.2283,1.0196,0.2594,-0.7347,0.6431,-0.0203,0.8822,0.5120,936.0323,16.8813,-28.3312,-6.0900,32.6287,211.2818,-17.6355,0.4995,95.9930,0.00000000,0.00000000,0.00000000,
3.415263,0.0352,0.2283,1.0196,0.2594,-0.7347,0.6431,-0.0203,0.8822,0.5120,936.0738,16.8813,-28.3312,-6.0900,32.6287,211.2818,-17.6355,0.4995,95.9930,0.00000000,0.00000000,0.00000000,
3.417583,0.0179,0.1413,0.9649,0.2594,-0.7347,0.6431,-0.0203,0.8822,0.5120,936.0738,16.8813,-28.3312,-6.0900,32.6287,211.2818,-17.6355,0.4995,95.9930,0.00000000,0.00000000,0.00000000,
3.418506,0.0179,0.1413,0.9649,0.0844,-1.4499,0.0648,-0.0203,0.8822,0.5120,936.0738,16.8813,-28.3312,-6.0900,32.6287,211.2818,-17.6355,0.4995,95.9930,0.00000000,0.00000000,0.00000000,
3.419321,0.0179,0.1413,0.9649,0.0844,-1.4499,0.0648,-0.0203,0.8822,0.5120,936.0738,16.8813,-28.3312,-6.0900,32.6287,211.5857,-16.7966,0.5324,95.9930,0.00000000,0.00000000,0.00000000,
3.437963,0.0179,0.1413,0.9649,0.0844,-1.4499,0.0648,-0.1326,0.0145,-0.3659,936.0738,16.8813,-28.3312,-6.0900,32.6287,211.5857,-16.7966,0.5324,95.9930,0.00000000,0.00000000,0.00000000,
3.456981,0.0179,0.1413,0.9649,0.0844,-1.4499,0.0648,-0.1326,0.0145,-0.3659,936.0764,16.8813,-28.3312,-6.0900,32.6287,211.5857,-16.7966,0.5324,95.9930,0.00000000,0.00000000,0.00000000,
3.466154,0.0179,0.1413,0.9649,0.0844,-1.4499,0.0648,-0.1326,0.0145,-0.3659,936.0764,17.3375,-27.7300,-6.0287,32.6287,211.5857,-16.7966,0.5324,95.9930,0.00000000,0.00000000,0.00000000,
3.484566,0.0319,0.2179,0.9635,0.0844,-1.4499,0.0648,-0.1326,0.0145,-0.3659,936.0764,17.3375,-27.7300,-6.0287,32.6287,211.5857,-16.7966,0.5324,95.9930,0.00000000,0.00000000,0.00000000,
3.487187,0.0319,0.2179,0.9635,0.7462,-0.6428,0.0441,-0.1326,0.0145,-0.3659,936.0764,17.3375,-27.7300,-6.0287,32.6287,211.5857,-16.7966,0.5324,95.9930,0.00000000,0.00000000,0.00000000,
3.487966,0.0319,0.2179,0.9635,0.7462,-0.6428,0.0441,-0.1326,0.0145,-0.3659,936.0764,17.3375,-27.7300,-6.0287,32.6287,212.3381,-16.4696,-2.5315,95.9930,0.00000000,0.00000000,0.00000000,
3.504285,0.0319,0.2179,0.9635,0.7462,-0.6428,0.0441,-0.0724,0.6845,-0.2150,936.0764,17.3375,-27.7300,-6.0287,32.6287,212.3381,-16.4696,-2.5315,94.5124,0.00000000,0.00000000,0.00000000,
3.526592,0.0319,0.2179,0.9635,0.7462,-0.6428,0.0441,-0.0724,0.6845,-0.2150,936.0764,17.8800,-27.4850,-5.5637,32.6287,212.3381,-16.4696,-2.5315,94.5124,0.00000000,0.00000000,0.00000000,
3.535622,0.0319,0.2179,0.9635,0.7462,-0.6428,0.0441,-0.0724,0.6845,-0.2150,936.0727,17.8800,-27.4850,-5.5637,32.6287,212.3381,-16.4696,-2.5315,94.5124,0.00000000,0.00000000,0.00000000,
3.551728,-0.0720,0.2497,1.1645,0.7462,-0.6428,0.0441,-0.0724,0.6845,-0.2150,936.0727,17.8800,-27.4850,-5.5637,32.6287,212.3381,-16.4696,-2.5315,94.5124,0.00000000,0.00000000,0.00000000,
3.553303,-0.0720,0.2497,1.1645,-0.2769,-0.3950,2.0330,-0.0724,0.6845,-0.2150,936.0727,17.8800,-27.4850,-5.5637,32.6287,212.3381,-16.4696,-2.5315,94.5124,0.00000000,0.00000000,0.00000000,
3.554046,-0.0720,0.2497,1.1645,-0.2769,-0.3950,2.0330,-0.0724,0.6845,-0.2150,936.0727,17.8800,-27.4850,-5.5637,32.6287,212.3200,-16.8564,-2.5021,94.5124,0.00000000,0.00000000,0.00000000,
3.572158,-0.0720,0.2497,1.1645,-0.2769,-0.3950,2.0330,0.1003,-0.2017,-0.0115,936.0727,17.8800,-27.4850,-5.5637,32.6287,212.3200,-16.8564,-2.5021,94.5124,0.00000000,0.00000000,0.00000000,
3.607020,-0.0720,0.2497,1.1645,-0.2769,-0.3950,2.0330,0.1003,-0.2017,-0.0115,936.0727,18.2288,-27.1275,-5.2587,32.6287,212.3200,-16.8564,-2.5021,94.5124,0.00000000,0.00000000,0.00000000,
3.616175,-0.0720,0.2497,1.1645,-0.2769,-0.3950,2.0330,0.1003,-0.2017,-0.0115,936.0787,18.2288,-27.1275,-5.2587,32.6287,212.3200,-16.8564,-2.5021,94.5124,0.00000000,0.00000000,0.00000000,
3.619636,0.1159,0.1645,0.9204,-0.2769,-0.3950,2.0330,0.1003,-0.2017,-0.0115,936.0787,18.2288,-27.1275,-5.2587,32.6287,212.3200,-16.8564,-2.5021,94.5124,0.00000000,0.00000000,0.00000000,
3.620663,0.1159,0.1645,0.9204,1.4029,-1.3385,-0.3324,0.1003,-0.2017,-0.0115,936.0787,18.2288,-27.1275,-5.2587,32.6287,212.3200,-16.8564,-2.5021,94.5124,0.00000000,0.00000000,0.00000000,
3.621433,0.1159,0.1645,0.9204,1.4029,-1.3385,-0.3324,0.1003,-0.2017,-0.0115,936.0787,18.2288,-27.1275,-5.2587,32.6287,212.8111,-17.5097,-1.5580,94.5124,0.00000000,0.00000000,0.00000000,
3.637967,0.1159,0.1645,0.9204,1.4029,-1.3385,-0.3324,0.3270,-0.0812,-0.1846,936.0787,18.2288,-27.1275,-5.2587,32.6287,212.8111,-17.5097,-1.5580,94.5124,0.00000000,0.00000000,0.00000000,
3.656016,0.1159,0.1645,0.9204,1.4029,-1.3385,-0.3324,0.3270,-0.0812,-0.1846,936.0455,18.2288,-27.1275,-5.2587,32.6287,212.8111,-17.5097,-1.5580,94.5124,0.00000000,0.00000000,0.00000000,
3.664700,0.1159,0.1645,0.9204,1.4029,-1.3385,-0.3324,0.3270,-0.0812,-0.1846,936.0455,17.8237,-27.5187,-4.5837,32.6287,212.8111,-17.5097,-1.5580,94.5124,0.00000000,0.00000000,0.00000000,
3.686281,0.0029,0.2613,1.1051,1.4029,-1.3385,-0.3324,0.3270,-0.0812,-0.1846,936.0455,17.8237,-27.5187,-4.5837,32.6287,212.8111,-17.5097,-1.5580,94.5124,0.00000000,0.00000000,0.00000000,
3.688302,0.0029,0.2613,1.1051,0.3837,-0.7112,1.5885,0.3270,-0.0812,-0.1846,936.0455,17.8237,-27.5187,-4.5837,32.6287,212.8111,-17.5097,-1.5580,94.5124,0.00000000,0.00000000,0.00000000,
3.689224,0.0029,0.2613,1.1051,0.3837,-0.7112,1.5885,0.3270,-0.0812,-0.1846,936.0455,17.8237,-27.5187,-4.5837,32.6287,214.3421,-19.4925,-2.0774,94.5124,0.00000000,0.00000000,0.00000000,
3.706938,0.0029,0.2613,1.1051,0.3837,-0.7112,1.5885,0.4401,-0.3147,-0.3668,936.0455,17.8237,-27.5187,-4.5837,32.6287,214.3421,-19.4925,-2.0774,94.5124,0.00000000,0.00000000,0.00000000,
3.725725,0.0029,0.2613,1.1051,0.3837,-0.7112,1.5885,0.4401,-0.3147,-0.3668,936.0455,18.2787,-27.2225,-4.2687,32.6287,214.3421,-19.4925,-2.0774,94.5124,0.00000000,0.00000000,0.00000000,
3.735805,0.0029,0.2613,1.1051,0.3837,-0.7112,1.5885,0.4401,-0.3147,-0.3668,936.0651,18.2787,-27.2225,-4.2687,32.6287,214.3421,-19.4925,-2.0774,94.5124,0.00000000,0.00000000,0.00000000,
3.754258,0.0219,0.2945,0.8749,0.3837,-0.7112,1.5885,0.4401,-0.3147,-0.3668,936.0651,18.2787,-27.2225,-4.2687,32.6287,214.3421,-19.4925,-2.0774,94.5124,0.00000000,0.00000000,0.00000000,
3.756017,0.0219,0.2945,0.8749,0.1793,-0.4339,-0.6569,0.4401,-0.3147,-0.3668,936.0651,18.2787,-27.2225,-4.2687,32.6287,214.3421,-19.4925,-2.0774,94.5124,0.00000000,0.00000000,0.00000000,
3.756733,0.0219,0.2945,0.8749,0.1793,-0.4339,-0.6569,0.4401,-0.3147,-0.3668,936.0651,18.2787,-27.2225,-4.2687,32.6287,216.2025,-19.7793,0.2030,94.5124,0.00000000,0.00000000,0.00000000,
3.772445,0.0219,0.2945,0.8749,0.1793,-0.4339,-0.6569,0.0819,-0.3752,-0.2098,936.0651,18.2787,-27.2225,-4.2687,32.6287,216.2025,-19.7793,0.2030,94.5124,0.00000000,0.00000000,0.00000000,
3.805000,0.0219,0.2945,0.8749,0.1793,-0.4339,-0.6569,0.0819,-0.3752,-0.2098,936.0651,18.8850,-26.6237,-4.0950,32.6287,216.2025,-19.7793,0.2030,93.3149,0.00000000,0.00000000,0.00000000,
3.815872,0.0219,0.2945,0.8749,0.1793,-0.4339,-0.6569,0.0819,-0.3752,-0.2098,936.1180,18.8850,-26.6237,-4.0950,32.6287,216.2025,-19.7793,0.2030,93.3149,0.00000000,0.00000000,0.00000000,
3.820221,0.0067,0.2678,1.0188,0.1793,-0.4339,-0.6569,0.0819,-0.3752,-0.2098,936.1180,18.8850,-26.6237,-4.0950,32.6287,216.2025,-19.7793,0.2030,93.3149,0.00000000,0.00000000,0.00000000,
3.821375,0.0067,0.2678,1.0188,0.1565,-1.0571,0.8919,0.0819,-0.3752,-0.2098,936.1180,18.8850,-26.6237,-4.0950,32.6287,216.2025,-19.7793,0.2030,93.3149,0.00000000,0.00000000,0.00000000,
3.822147,0.0067,0.2678,1.0188,0.1565,-1.0571,0.8919,0.0819,-0.3752,-0.2098,936.1180,18.8850,-26.6237,-4.0950,32.6287,216.2820,-22.0427,-0.5322,93.3149,0.00000000,0.00000000,0.00000000,
3.840692,0.0067,0.2678,1.0188,0.1565,-1.0571,0.8919,0.6640,0.0095,-0.0725,936.1180,18.8850,-26.6237,-4.0950,32.6287,216.2820,-22.0427,-0.5322,93.3149,0.00000000,0.00000000,0.00000000,
3.856296,0.0067,0.2678,1.0188,0.1565,-1.0571,0.8919,0.6640,0.0095,-0.0725,936.0587,18.8850,-26.6237,-4.0950,32.6287,216.2820,-22.0427,-0.5322,93.3149,0.00000000,0.00000000,0.00000000,
3.863320,0.0067,0.2678,1.0188,0.1565,-1.0571,0.8919,0.6640,0.0095,-0.0725,936.0587,18.4788,-26.8162,-3.6512,32.6287,216.2820,-22.0427,-0.5322,93.3149,0.00000000,0.00000000,0.00000000,
3.888084,0.0607,0.3167,0.9876,0.1565,-1.0571,0.8919,0.6640,0.0095,-0.0725,936.0587,18.4788,-26.8162,-3.6512,32.6287,216.2820,-22.0427,-0.5322,93.3149,0.00000000,0.00000000,0.00000000,
3.890064,0.0607,0.3167,0.9876,0.6432,-0.9019,0.7231,0.6640,0.0095,-0.0725,936.0587,18.4788,-26.8162,-3.6512,32.6287,216.2820,-22.0427,-0.5322,93.3149,0.00000000,0.00000000,0.00000000,
3.890847,0.0607,0.3167,0.9876,0.6432,-0.9019,0.7231,0.6640,0.0095,-0.0725,936.0587,18.4788,-26.8162,-3.6512,32.6287,216.8103,-24.0966,-0.2834,93.3149,0.00000000,0.00000000,0.00000000,
3.907014,0.0607,0.3167,0.9876,0.6432,-0.9019,0.7231,0.5768,0.0557,-0.0909,936.0587,18.4788,-26.8162,-3.6512,32.6287,216.8103,-24.0966,-0.2834,93.3149,0.00000000,0.00000000,0.00000000,
3.924900,0.0607,0.3167,0.9876,0.6432,-0.9019,0.7231,0.5768,0.0557,-0.0909,936.0587,19.1838,-26.2387,-2.2625,32.6287,216.8103,-24.0966,-0.2834,93.3149,0.00000000,0.00000000,0.00000000,
3.936101,0.0607,0.3167,0.9876,0.6432,-0.9019,0.7231,0.5768,0.0557,-0.0909,935.9644,19.1838,-26.2387,-2.2625,32.6287,216.8103,-24.0966,-0.2834,93.3149,0.00000000,0.00000000,0.00000000,
3.955500,0.0416,0.3661,0.9652,0.6432,-0.9019,0.7231,0.5768,0.0557,-0.0909,935.9644,19.1838,-26.2387,-2.2625,32.6287,216.8103,-24.0966,-0.2834,93.3149,0.00000000,0.00000000,0.00000000,
3.957638,0.0416,0.3661,0.9652,0.8781,-0.6881,0.6431,0.5768,0.0557,-0.0909,935.9644,19.1838,-26.2387,-2.2625,32.6287,216.8103,-24.0966,-0.2834,93.3149,0.00000000,0.00000000,0.00000000,
3.958632,0.0416,0.3661,0.9652,0.8781,-0.6881,0.6431,0.5768,0.0557,-0.0909,935.9644,19.1838,-26.2387,-2.2625,32.6287,215.9660,-25.8758,-2.7464,93.3149,0.00000000,0.00000000,0.00000000,
3.974328,0.0416,0.3661,0.9652,0.8781,-0.6881,0.6431,0.3343,0.6776,-0.1280,935.9644,19.1838,-26.2387,-2.2625,32.6287,215.9660,-25.8758,-2.7464,93.3149,0.00000000,0.00000000,0.00000000,
4.003874,0.0416,0.3661,0.9652,0.8781,-0.6881,0.6431,0.3343,0.6776,-0.1280,935.9644,19.1962,-26.3275,-0.3713,32.6287,215.9660,-25.8758,-2.7464,93.3149,0.00000000,0.00000000,0.00000000,
4.016050,0.0416,0.3661,0.9652,0.8781,-0.6881,0.6431,0.3343,0.6776,-0.1280,936.0315,19.1962,-26.3275,-0.3713,32.6287,215.9660,-25.8758,-2.7464,93.3149,0.00000000,0.00000000,0.00000000,
4.022415,0.1045,0.3978,0.8252,0.8781,-0.6881,0.6431,0.3343,0.6776,-0.1280,936.0315,19.1962,-26.3275,-0.3713,32.6287,215.9660,-25.8758,-2.7464,93.3149,0.00000000,0.00000000,0.00000000,
4.023886,0.1045,0.3978,0.8252,1.8477,-0.4067,-0.6894,0.3343,0.6776,-0.1280,936.0315,19.1962,-26.3275,-0.3713,32.6287,215.9660,-25.8758,-2.7464,93.3149,0.00000000,0.00000000,0.00000000,
4.024669,0.1045,0.3978,0.8252,1.8477,-0.4067,-0.6894,0.3343,0.6776,-0.1280,936.0315,19.1962,-26.3275,-0.3713,32.6287,216.3545,-26.1294,-4.8158,93.3149,0.00000000,0.00000000,0.00000000,
4.041354,0.1045,0.3978,0.8252,1.8477,-0.4067,-0.6894,-0.0750,0.5148,-0.4079,936.0315,19.1962,-26.3275,-0.3713,32.6287,216.3545,-26.1294,-4.8158,93.3149,0.00000000,0.00000000,0.00000000,
4.056248,0.1045,0.3978,0.8252,1.8477,-0.4067,-0.6894,-0.0750,0.5148,-0.4079,936.0616,19.1962,-26.3275,-0.3713,32.6287,216.3545,-26.1294,-4.8158,93.3149,0.00000000,0.00000000,0.00000000,
4.061797,0.1045,0.3978,0.8252,1.8477,-0.4067,-0.6894,-0.0750,0.5148,-0.4079,936.0616,20.0287,-25.7450,0.4625,32.6287,216.3545,-26.1294,-4.8158,93.3149,0.00000000,0.00000000,0.00000000,
4.090319,-0.0845,0.3427,0.8640,1.8477,-0.4067,-0.6894,-0.0750,0.5148,-0.4079,936.0616,20.0287,-25.7450,0.4625,32.6287,216.3545,-26.1294,-4.8158,93.3149,0.00000000,0.00000000,0.00000000,
4.092984,-0.0845,0.3427,0.8640,0.4095,-0.7028,-0.3766,-0.0750,0.5148,-0.4079,936.0616,20.0287,-25.7450,0.4625,32.6287,216.3545,-26.1294,-4.8158,93.3149,0.00000000,0.00000000,0.00000000,
4.093898,-0.0845,0.3427,0.8640,0.4095,-0.7028,-0.3766,-0.0750,0.5148,-0.4079,936.0616,20.0287,-25.7450,0.4625,32.6287,216.6765,-24.6654,-7.2469,93.3149,0.00000000,0.00000000,0.00000000,
4.108396,-0.0845,0.3427,0.8640,0.4095,-0.7028,-0.3766,-0.3952,0.3291,-0.2518,936.0616,20.0287,-25.7450,0.4625,32.6287,216.6765,-24.6654,-7.2469,92.6121,0.00000000,0.00000000,0.00000000,
4.122012,-0.0845,0.3427,0.8640,0.4095,-0.7028,-0.3766,-0.3952,0.3291,-0.2518,936.0616,20.3062,-25.1900,-0.1675,32.6287,216.6765,-24.6654,-7.2469,92.6121,0.00000000,0.00000000,0.00000000,
4.135974,-0.0845,0.3427,0.8640,0.4095,-0.7028,-0.3766,-0.3952,0.3291,-0.2518,936.0757,20.3062,-25.1900,-0.1675,32.6287,216.6765,-24.6654,-7.2469,92.6121,0.00000000,0.00000000,0.00000000,
4.156204,-0.0814,0.2967,1.0430,0.4095,-0.7028,-0.3766,-0.3952,0.3291,-0.2518,936.0757,20.3062,-25.1900,-0.1675,32.6287,216.6765,-24.6654,-7.2469,92.6121,0.00000000,0.00000000,0.00000000,
4.157622,-0.0814,0.2967,1.0430,0.4722,-0.9683,1.2991,-0.3952,0.3291,-0.2518,936.0757,20.3062,-25.1900,-0.1675,32.6287,216.6765,-24.6654,-7.2469,92.6121,0.00000000,0.00000000,0.00000000,
4.159389,-0.0814,0.2967,1.0430,0.4722,-0.9683,1.2991,-0.3952,0.3291,-0.2518,936.0757,20.3062,-25.1900,-0.1675,32.6287,217.3365,-23.4817,-7.4380,92.6121,0.00000000,0.00000000,0.00000000,
4.175734,-0.0814,0.2967,1.0430,0.4722,-0.9683,1.2991,-0.1901,0.1726,-0.1477,936.0757,20.3062,-25.1900,-0.1675,32.6287,217.3365,-23.4817,-7.4380,92.6121,0.00000000,0.00000000,0.00000000,
4.201312,-0.0814,0.2967,1.0430,0.4722,-0.9683,1.2991,-0.1901,0.1726,-0.1477,936.0757,20.2962,-24.6450,-0.1750,32.6287,217.3365,-23.4817,-7.4380,92.6121,0.00000000,0.00000000,0.00000000,
4.216788,-0.0814,0.2967,1.0430,0.4722,-0.9683,1.2991,-0.1901,0.1726,-0.1477,936.0923,20.2962,-24.6450,-0.1750,32.6287,217.3365,-23.4817,-7.4380,92.6121,0.00000000,0.00000000,0.00000000,
4.224483,-0.1867,0.2563,0.8771,0.4722,-0.9683,1.2991,-0.1901,0.1726,-0.1477,936.0923,20.2962,-24.6450,-0.1750,32.6287,217.3365,-23.4817,-7.4380,92.6121,0.00000000,0.00000000,0.00000000,
4.225988,-0.1867,0.2563,0.8771,-0.2283,-1.3715,-0.2702,-0.1901,0.1726,-0.1477,936.0923,20.2962,-24.6450,-0.1750,32.6287,217.3365,-23.4817,-7.4380,92.6121,0.00000000,0.00000000,0.00000000,
4.226761,-0.1867,0.2563,0.8771,-0.2283,-1.3715,-0.2702,-0.1901,0.1726,-0.1477,936.0923,20.2962,-24.6450,-0.1750,32.6287,216.2165,-23.6499,-9.3926,92.6121,0.00000000,0.00000000,0.00000000,
4.242981,-0.1867,0.2563,0.8771,-0.2283,-1.3715,-0.2702,0.0203,0.3390,0.1697,936.0923,20.2962,-24.6450,-0.1750,32.6287,216.2165,-23.6499,-9.3926,92.6121,0.00000000,0.00000000,0.00000000,
4.255697,-0.1867,0.2563,0.8771,-0.2283,-1.3715,-0.2702,0.0203,0.3390,0.1697,936.0538,20.2962,-24.6450,-0.1750,32.6287,216.2165,-23.6499,-9.3926,92.6121,0.00000000,0.00000000,0.00000000,
4.261456,-0.1867,0.2563,0.8771,-0.2283,-1.3715,-0.2702,0.0203,0.3390,0.1697,936.0538,19.7712,-24.5487,0.9100,32.6287,216.2165,-23.6499,-9.3926,92.6121,0.00000000,0.00000000,0.00000000,
4.276748,-0.1867,0.2563,0.8771,-0.2283,-1.3715,-0.2702,0.0203,0.3390,0.1697,936.0538,19.7712,-24.5487,0.9100,35.9225,216.2165,-23.6499,-9.3926,92.6121,0.00000000,0.00000000,0.00000000,
4.291110,-0.1069,0.3432,0.9765,-0.2283,-1.3715,-0.2702,0.0203,0.3390,0.1697,936.0538,19.7712,-24.5487,0.9100,35.9225,216.2165,-23.6499,-9.3926,92.6121,0.00000000,0.00000000,0.00000000,
4.292751,-0.1069,0.3432,0.9765,0.3067,-0.5014,0.6549,0.0203,0.3390,0.1697,936.0538,19.7712,-24.5487,0.9100,35.9225,216.2165,-23.6499,-9.3926,92.6121,0.00000000,0.00000000,0.00000000,
4.293528,-0.1069,0.3432,0.9765,0.3067,-0.5014,0.6549,0.0203,0.3390,0.1697,936.0538,19.7712,-24.5487,0.9100,35.9225,215.3907,-23.4379,-7.9372,92.6121,0.00000000,0.00000000,0.00000000,
4.310204,-0.1069,0.3432,0.9765,0.3067,-0.5014,0.6549,-0.1463,-0.1151,0.2976,936.0538,19.7712,-24.5487,0.9100,35.9225,215.3907,-23.4379,-7.9372,92.6121,0.00000000,0.00000000,0.00000000,
4.336017,-0.1069,0.3432,0.9765,0.3067,-0.5014,0.6549,-0.1463,-0.1151,0.2976,936.1078,19.7712,-24.5487,0.9100,35.9225,215.3907,-23.4379,-7.9372,92.6121,0.00000000,0.00000000,0.00000000,
4.339565,-0.1069,0.3432,0.9765,0.3067,-0.5014,0.6549,-0.1463,-0.1151,0.2976,936.1078,19.3350,-24.6887,0.2887,35.9225,215.3907,-23.4379,-7.9372,92.6121,0.00000000,0.00000000,0.00000000,
4.358284,-0.1033,0.3067,1.0205,0.3067,-0.5014,0.6549,-0.1463,-0.1151,0.2976,936.1078,19.3350,-24.6887,0.2887,35.9225,215.3907,-23.4379,-7.9372,92.6121,0.00000000,0.00000000,0.00000000,
4.360168,-0.1033,0.3067,1.0205,0.6220,-0.8121,1.1130,-0.1463,-0.1151,0.2976,936.1078,19.3350,-24.6887,0.2887,35.9225,215.3907,-23.4379,-7.9372,92.6121,0.00000000,0.00000000,0.00000000,
4.361272,-0.1033,0.3067,1.0205,0.6220,-0.8121,1.1130,-0.1463,-0.1151,0.2976,936.1078,19.3350,-24.6887,0.2887,35.9225,213.6498,-23.2460,-9.5918,92.6121,0.00000000,0.00000000,0.00000000,
4.377358,-0.1033,0.3067,1.0205,0.6220,-0.8121,1.1130,-0.0096,0.5908,0.2767,936.1078,19.3350,-24.6887,0.2887,35.9225,213.6498,-23.2460,-9.5918,92.6121,0.00000000,0.00000000,0.00000000,
4.379696,-0.1033,0.3067,1.0205,0.6220,-0.8121,1.1130,-0.0096,0.5908,0.2767,936.1078,19.3350,-24.6887,0.2887,42.6063,213.6498,-23.2460,-9.5918,92.6121,0.00000000,0.00000000,0.00000000,
4.402892,-0.1033,0.3067,1.0205,0.6220,-0.8121,1.1130,-0.0096,0.5908,0.2767,936.1078,18.9225,-25.0962,0.3875,42.6063,213.6498,-23.2460,-9.5918,92.6121,0.00000000,0.00000000,0.00000000,
4.417058,-0.1033,0.3067,1.0205,0.6220,-0.8121,1.1130,-0.0096,0.5908,0.2767,936.0878,18.9225,-25.0962,0.3875,42.6063,213.6498,-23.2460,-9.5918,93.6826,0.00000000,0.00000000,0.00000000,
4.426198,-0.1033,0.3067,1.0205,0.9234,-0.3764,-0.4218,-0.0096,0.5908,0.2767,936.0878,18.9225,-25.0962,0.3875,42.6063,213.6498,-23.2460,-9.5918,93.6826,0.00000000,0.00000000,0.00000000,
4.427619,-0.0819,0.3606,0.8579,0.9234,-0.3764,-0.4218,-0.0096,0.5908,0.2767,936.0878,18.9225,-25.0962,0.3875,42.6063,213.6498,-23.2460,-9.5918,93.6826,0.00000000,0.00000000,0.00000000,
4.428403,-0.0819,0.3606,0.8579,0.9234,-0.3764,-0.4218,-0.0096,0.5908,0.2767,936.0878,18.9225,-25.0962,0.3875,42.6063,212.8869,-23.8878,-10.1299,93.6826,0.00000000,0.00000000,0.00000000,
4.444951,-0.0819,0.3606,0.8579,0.9234,-0.3764,-0.4218,0.0215,0.1831,0.0177,936.0878,18.9225,-25.0962,0.3875,42.6063,212.8869,-23.8878,-10.1299,93.6826,0.00000000,0.00000000,0.00000000,
4.455742,-0.0819,0.3606,0.8579,0.9234,-0.3764,-0.4218,0.0215,0.1831,0.0177,936.1152,18.9225,-25.0962,0.3875,42.6063,212.8869,-23.8878,-10.1299,93.6826,0.00000000,0.00000000,0.00000000,
4.459223,-0.0819,0.3606,0.8579,0.9234,-0.3764,-0.4218,0.0215,0.1831,0.0177,936.1152,18.2013,-25.7825,0.9475,42.6063,212.8869,-23.8878,-10.1299,93.6826,0.00000000,0.00000000,0.00000000,
4.482118,-0.0819,0.3606,0.8579,0.9234,-0.3764,-0.4218,0.0215,0.1831,0.0177,936.1152,18.2013,-25.7825,0.9475,46.8288,212.8869,-23.8878,-10.1299,93.6826,0.00000000,0.00000000,0.00000000,
4.492616,-0.1634,0.3009,0.9125,0.9234,-0.3764,-0.4218,0.0215,0.1831,0.0177,936.1152,18.2013,-25.7825,0.9475,46.8288,212.8869,-23.8878,-10.1299,93.6826,0.00000000,0.00000000,0.00000000,
4.494046,-0.1634,0.3009,0.9125,0.1388,-0.7656,0.0318,0.0215,0.1831,0.0177,936.1152,18.2013,-25.7825,0.9475,46.8288,212.8869,-23.8878,-10.1299,93.6826,0.00000000,0.00000000,0.00000000,
4.494780,-0.1634,0.3009,0.9125,0.1388,-0.7656,0.0318,0.0215,0.1831,0.0177,936.1152,18.2013,-25.7825,0.9475,46.8288,212.6244,-22.6312,-10.2189,93.6826,0.00000000,0.00000000,0.00000000,
4.511812,-0.1634,0.3009,0.9125,0.1388,-0.7656,0.0318,-0.3179,-0.1339,0.1058,936.1152,18.2013,-25.7825,0.9475,46.8288,212.6244,-22.6312,-10.2189,93.6826,0.00000000,0.00000000,0.00000000,
4.537581,-0.1634,0.3009,0.9125,0.1388,-0.7656,0.0318,-0.3179,-0.1339,0.1058,936.0931,18.2013,-25.7825,0.9475,46.8288,212.6244,-22.6312,-10.2189,93.6826,0.00000000,0.00000000,0.00000000,
4.539320,-0.1634,0.3009,0.9125,0.1388,-0.7656,0.0318,-0.3179,-0.1339,0.1058,936.0931,18.1787,-25.4112,0.4350,46.8288,212.6244,-22.6312,-10.2189,93.6826,0.00000000,0.00000000,0.00000000,
4.559878,-0.1196,0.3009,0.9956,0.1388,-0.7656,0.0318,-0.3179,-0.1339,0.1058,936.0931,18.1787,-25.4112,0.4350,46.8288,212.6244,-22.6312,-10.2189,93.6826,0.00000000,0.00000000,0.00000000,
4.561573,-0.1196,0.3009,0.9956,0.4648,-0.7721,0.8293,-0.3179,-0.1339,0.1058,936.0931,18.1787,-25.4112,0.4350,46.8288,212.6244,-22.6312,-10.2189,93.6826,0.00000000,0.00000000,0.00000000,
4.562436,-0.1196,0.3009,0.9956,0.4648,-0.7721,0.8293,-0.3179,-0.1339,0.1058,936.0931,18.1787,-25.4112,0.4350,46.8288,212.8238,-22.6223,-9.6075,93.6826,0.00000000,0.00000000,0.00000000,
4.579599,-0.1196,0.3009,0.9956,0.4648,-0.7721,0.8293,0.0539,-0.0446,-0.0157,936.0931,18.1787,-25.4112,0.4350,46.8288,212.8238,-22.6223,-9.6075,93.6826,0.00000000,0.00000000,0.00000000,
4.598384,-0.1196,0.3009,0.9956,0.4648,-0.7721,0.8293,0.0539,-0.0446,-0.0157,936.0931,17.8662,-25.4412,0.1225,46.8288,212.8238,-22.6223,-9.6075,93.6826,0.00000000,0.00000000,0.00000000,
4.616697,-0.1196,0.3009,0.9956,0.4648,-0.7721,0.8293,0.0539,-0.0446,-0.0157,936.1190,17.8662,-25.4412,0.1225,46.8288,212.8238,-22.6223,-9.6075,93.6826,0.00000000,0.00000000,0.00000000,
4.627063,-0.1920,0.3009,0.9105,0.4648,-0.7721,0.8293,0.0539,-0.0446,-0.0157,936.1190,17.8662,-25.4412,0.1225,46.8288,212.8238,-22.6223,-9.6075,93.6826,0.00000000,0.00000000,0.00000000,
4.628517,-0.1920,0.3009,0.9105,-0.2572,-0.8211,0.0129,0.0539,-0.0446,-0.0157,936.1190,17.8662,-25.4412,0.1225,46.8288,212.8238,-22.6223,-9.6075,93.6826,0.00000000,0.00000000,0.00000000,
4.629502,-0.1920,0.3009,0.9105,-0.2572,-0.8211,0.0129,0.0539,-0.0446,-0.0157,936.1190,17.8662,-25.4412,0.1225,46.8288,212.5563,-22.9350,-9.5277,93.6826,0.00000000,0.00000000,0.00000000,
4.646689,-0.1920,0.3009,0.9105,-0.2572,-0.8211,0.0129,0.1182,-0.0783,0.1321,936.1190,17.8662,-25.4412,0.1225,46.8288,212.5563,-22.9350,-9.5277,93.6826,0.00000000,0.00000000,0.00000000,
4.656041,-0.1920,0.3009,0.9105,-0.2572,-0.8211,0.0129,0.1182,-0.0783,0.1321,936.1428,17.8662,-25.4412,0.1225,46.8288,212.5563,-22.9350,-9.5277,93.6826,0.00000000,0.00000000,0.00000000,
4.657301,-0.1920,0.3009,0.9105,-0.2572,-0.8211,0.0129,0.1182,-0.0783,0.1321,936.1428,18.1200,-25.1838,0.4575,46.8288,212.5563,-22.9350,-9.5277,93.6826,0.00000000,0.00000000,0.00000000,
4.695419,-0.0778,0.3496,0.9715,-0.2572,-0.8211,0.0129,0.1182,-0.0783,0.1321,936.1428,18.1200,-25.1838,0.4575,46.8288,212.5563,-22.9350,-9.5277,93.6826,0.00000000,0.00000000,0.00000000,
4.698463,-0.0778,0.3496,0.9715,0.6156,-0.3938,0.5912,0.1182,-0.0783,0.1321,936.1428,18.1200,-25.1838,0.4575,46.8288,212.5563,-22.9350,-9.5277,93.6826,0.00000000,0.00000000,0.00000000,
4.699482,-0.0778,0.3496,0.9715,0.6156,-0.3938,0.5912,0.1182,-0.0783,0.1321,936.1428,18.1200,-25.1838,0.4575,46.8288,212.5627,-23.1589,-8.0749,93.6826,0.00000000,0.00000000,0.00000000,
4.713484,-0.0778,0.3496,0.9715,0.6156,-0.3938,0.5912,-0.0316,-0.3842,0.0954,936.1428,18.1200,-25.1838,0.4575,46.8288,212.5627,-23.1589,-8.0749,92.2210,0.00000000,0.00000000,0.00000000,
4.736309,-0.0778,0.3496,0.9715,0.6156,-0.3938,0.5912,-0.0316,-0.3842,0.0954,936.1167,18.1200,-25.1838,0.4575,46.8288,212.5627,-23.1589,-8.0749,92.2210,0.00000000,0.00000000,0.00000000,
4.737970,-0.0778,0.3496,0.9715,0.6156,-0.3938,0.5912,-0.0316,-0.3842,0.0954,936.1167,17.4975,-25.6712,0.4887,46.8288,212.5627,-23.1589,-8.0749,92.2210,0.00000000,0.00000000,0.00000000,
4.762063,-0.0382,0.3326,1.1037,0.6156,-0.3938,0.5912,-0.0316,-0.3842,0.0954,936.1167,17.4975,-25.6712,0.4887,46.8288,212.5627,-23.1589,-8.0749,92.2210,0.00000000,0.00000000,0.00000000,
4.764996,-0.0382,0.3326,1.1037,1.0250,-0.5269,1.8754,-0.0316,-0.3842,0.0954,936.1167,17.4975,-25.6712,0.4887,46.8288,212.5627,-23.1589,-8.0749,92.2210,0.00000000,0.00000000,0.00000000,
4.766090,-0.0382,0.3326,1.1037,1.0250,-0.5269,1.8754,-0.0316,-0.3842,0.0954,936.1167,17.4975,-25.6712,0.4887,46.8288,212.6780,-22.9533,-8.2026,92.2210,0.00000000,0.00000000,0.00000000,
4.781128,-0.0382,0.3326,1.1037,1.0250,-0.5269,1.8754,0.0522,0.2987,-0.0622,936.1167,17.4975,-25.6712,0.4887,46.8288,212.6780,-22.9533,-8.2026,92.2210,0.00000000,0.00000000,0.00000000,
4.796662,-0.0382,0.3326,1.1037,1.0250,-0.5269,1.8754,0.0522,0.2987,-0.0622,936.1167,17.7875,-25.6925,0.5788,46.8288,212.6780,-22.9533,-8.2026,92.2210,0.00000000,0.00000000,0.00000000,
4.816932,-0.0382,0.3326,1.1037,1.0250,-0.5269,1.8754,0.0522,0.2987,-0.0622,936.1097,17.7875,-25.6925,0.5788,46.8288,212.6780,-22.9533,-8.2026,92.2210,0.00000000,0.00000000,0.00000000,
4.829179,-0.1275,0.2928,0.7907,1.0250,-0.5269,1.8754,0.0522,0.2987,-0.0622,936.1097,17.7875,-25.6925,0.5788,46.8288,212.6780,-22.9533,-8.2026,92.2210,0.00000000,0.00000000,0.00000000,
4.830868,-0.1275,0.2928,0.7907,0.3389,-1.0444,-1.1047,0.0522,0.2987,-0.0622,936.1097,17.7875,-25.6925,0.5788,46.8288,212.6780,-22.9533,-8.2026,92.2210,0.00000000,0.00000000,0.00000000,
4.832263,-0.1275,0.2928,0.7907,0.3389,-1.0444,-1.1047,0.0522,0.2987,-0.0622,936.1097,17.7875,-25.6925,0.5788,46.8288,211.8353,-23.8472,-9.3196,92.2210,0.00000000,0.00000000,0.00000000,
4.848407,-0.1275,0.2928,0.7907,0.3389,-1.0444,-1.1047,0.1274,0.0835,0.1309,936.1097,17.7875,-25.6925,0.5788,46.8288,211.8353,-23.8472,-9.3196,92.2210,0.00000000,0.00000000,0.00000000,
4.856183,-0.1275,0.2928,0.7907,0.3389,-1.0444,-1.1047,0.1274,0.0835,0.1309,936.1044,17.7875,-25.6925,0.5788,46.8288,211.8353,-23.8472,-9.3196,92.2210,0.00000000,0.00000000,0.00000000,
4.857621,-0.1275,0.2928,0.7907,0.3389,-1.0444,-1.1047,0.1274,0.0835,0.1309,936.1044,17.9225,-26.0362,0.7788,46.8288,211.8353,-23.8472,-9.3196,92.2210,0.00000000,0.00000000,0.00000000,
4.896723,-0.0604,0.2970,0.8721,0.3389,-1.0444,-1.1047,0.1274,0.0835,0.1309,936.1044,17.9225,-26.0362,0.7788,46.8288,211.8353,-23.8472,-9.3196,92.2210,0.00000000,0.00000000,0.00000000,
4.898709,-0.0604,0.2970,0.8721,0.8071,-0.8910,-0.3880,0.1274,0.0835,0.1309,936.1044,17.9225,-26.0362,0.7788,46.8288,211.8353,-23.8472,-9.3196,92.2210,0.00000000,0.00000000,0.00000000,
4.899551,-0.0604,0.2970,0.8721,0.8071,-0.8910,-0.3880,0.1274,0.0835,0.1309,936.1044,17.9225,-26.0362,0.7788,46.8288,212.0044,-23.0511,-8.1992,92.2210,0.00000000,0.00000000,0.00000000,
4.915120,-0.0604,0.2970,0.8721,0.8071,-0.8910,-0.3880,-0.2466,-0.2359,0.0652,936.1044,17.9225,-26.0362,0.7788,46.8288,212.0044,-23.0511,-8.1992,92.2210,0.00000000,0.00000000,0.00000000,
4.936575,-0.0604,0.2970,0.8721,0.8071,-0.8910,-0.3880,-0.2466,-0.2359,0.0652,936.1044,17.5637,-25.8037,0.4350,46.8288,212.0044,-23.0511,-8.1992,92.2210,0.00000000,0.00000000,0.00000000,
4.938052,-0.0604,0.2970,0.8721,0.8071,-0.8910,-0.3880,-0.2466,-0.2359,0.0652,936.1611,17.5637,-25.8037,0.4350,46.8288,212.0044,-23.0511,-8.1992,92.2210,0.00000000,0.00000000,0.00000000,
4.963716,-0.0712,0.3213,1.0660,0.8071,-0.8910,-0.3880,-0.2466,-0.2359,0.0652,936.1611,17.5637,-25.8037,0.4350,46.8288,212.0044,-23.0511,-8.1992,92.2210,0.00000000,0.00000000,0.00000000,
4.966369,-0.0712,0.3213,1.0660,0.5004,-0.6025,1.4612,-0.2466,-0.2359,0.0652,936.1611,17.5637,-25.8037,0.4350,46.8288,212.0044,-23.0511,-8.1992,92.2210,0.00000000,0.00000000,0.00000000,
4.967570,-0.0712,0.3213,1.0660,0.5004,-0.6025,1.4612,-0.2466,-0.2359,0.0652,936.1611,17.5637,-25.8037,0.4350,46.8288,211.9004,-22.6583,-7.0163,92.2210,0.00000000,0.00000000,0.00000000,
4.982382,-0.0712,0.3213,1.0660,0.5004,-0.6025,1.4612,-0.0360,-0.2848,0.1529,936.1611,17.5637,-25.8037,0.4350,46.8288,211.9004,-22.6583,-7.0163,92.2210,0.00000000,0.00000000,0.00000000,
4.994902,-0.0712,0.3213,1.0660,0.5004,-0.6025,1.4612,-0.0360,-0.2848,0.1529,936.1611,17.5037,-25.9925,-0.6513,46.8288,211.9004,-22.6583,-7.0163,92.2210,0.00000000,0.00000000,0.00000000,
5.016227,-0.0712,0.3213,1.0660,0.5004,-0.6025,1.4612,-0.0360,-0.2848,0.1529,936.1038,17.5037,-25.9925,-0.6513,46.8288,211.9004,-22.6583,-7.0163,92.1852,0.00000000,0.00000000,0.00000000,
5.030378,0.0081,0.3464,1.0651,0.5004,-0.6025,1.4612,-0.0360,-0.2848,0.1529,936.1038,17.5037,-25.9925,-0.6513,46.8288,211.9004,-22.6583,-7.0163,92.1852,0.00000000,0.00000000,0.00000000,
5.031857,0.0081,0.3464,1.0651,1.3359,-0.3437,1.4559,-0.0360,-0.2848,0.1529,936.1038,17.5037,-25.9925,-0.6513,46.8288,211.9004,-22.6583,-7.0163,92.1852,0.00000000,0.00000000,0.00000000,
5.032683,0.0081,0.3464,1.0651,1.3359,-0.3437,1.4559,-0.0360,-0.2848,0.1529,936.1038,17.5037,-25.9925,-0.6513,46.8288,211.7273,-22.5989,-7.3592,92.1852,0.00000000,0.00000000,0.00000000,
5.049890,0.0081,0.3464,1.0651,1.3359,-0.3437,1.4559,-0.0053,0.3198,-0.0701,936.1038,17.5037,-25.9925,-0.6513,46.8288,211.7273,-22.5989,-7.3592,92.1852,0.00000000,0.00000000,0.00000000,
5.054947,0.0081,0.3464,1.0651,1.3359,-0.3437,1.4559,-0.0053,0.3198,-0.0701,936.1038,17.6275,-25.8637,-0.3537,46.8288,211.7273,-22.5989,-7.3592,92.1852,0.00000000,0.00000000,0.00000000,
5.056224,0.0081,0.3464,1.0651,1.3359,-0.3437,1.4559,-0.0053,0.3198,-0.0701,936.1403,17.6275,-25.8637,-0.3537,46.8288,211.7273,-22.5989,-7.3592,92.1852,0.00000000,0.00000000,0.00000000,
5.097973,-0.1077,0.2863,0.8462,1.3359,-0.3437,1.4559,-0.0053,0.3198,-0.0701,936.1403,17.6275,-25.8637,-0.3537,46.8288,211.7273,-22.5989,-7.3592,92.1852,0.00000000,0.00000000,0.00000000,
5.100160,-0.1077,0.2863,0.8462,0.3193,-1.0308,-0.6308,-0.0053,0.3198,-0.0701,936.1403,17.6275,-25.8637,-0.3537,46.8288,211.7273,-22.5989,-7.3592,92.1852,0.00000000,0.00000000,0.00000000,
5.101064,-0.1077,0.2863,0.8462,0.3193,-1.0308,-0.6308,-0.0053,0.3198,-0.0701,936.1403,17.6275,-25.8637,-0.3537,46.8288,211.4776,-23.2661,-8.0539,92.1852,0.00000000,0.00000000,0.00000000,
5.117919,-0.1077,0.2863,0.8462,0.3193,-1.0308,-0.6308,0.1695,-0.0499,0.0464,936.1403,17.6275,-25.8637,-0.3537,46.8288,211.4776,-23.2661,-8.0539,92.1852,0.00000000,0.00000000,0.00000000,
5.134246,-0.1077,0.2863,0.8462,0.3193,-1.0308,-0.6308,0.1695,-0.0499,0.0464,936.1403,17.6425,-25.7475,0.8025,46.8288,211.4776,-23.2661,-8.0539,92.1852,0.00000000,0.00000000,0.00000000,
5.136066,-0.1077,0.2863,0.8462,0.3193,-1.0308,-0.6308,0.1695,-0.0499,0.0464,936.1762,17.6425,-25.7475,0.8025,46.8288,211.4776,-23.2661,-8.0539,92.1852,0.00000000,0.00000000,0.00000000,
5.165316,-0.0387,0.3435,0.9449,0.3193,-1.0308,-0.6308,0.1695,-0.0499,0.0464,936.1762,17.6425,-25.7475,0.8025,46.8288,211.4776,-23.2661,-8.0539,92.1852,0.00000000,0.00000000,0.00000000,
5.168349,-0.0387,0.3435,0.9449,0.8718,-0.3714,0.2767,0.1695,-0.0499,0.0464,936.1762,17.6425,-25.7475,0.8025,46.8288,211.4776,-23.2661,-8.0539,92.1852,0.00000000,0.00000000,0.00000000,
5.169215,-0.0387,0.3435,0.9449,0.8718,-0.3714,0.2767,0.1695,-0.0499,0.0464,936.1762,17.6425,-25.7475,0.8025,46.8288,211.7992,-22.5937,-7.3257,92.1852,0.00000000,0.00000000,0.00000000,
5.185241,-0.0387,0.3435,0.9449,0.8718,-0.3714,0.2767,-0.2272,-0.0799,-0.0388,936.1762,17.6425,-25.7475,0.8025,46.8288,211.7992,-22.5937,-7.3257,92.1852,0.00000000,0.00000000,0.00000000,
5.193620,-0.0387,0.3435,0.9449,0.8718,-0.3714,0.2767,-0.2272,-0.0799,-0.0388,936.1762,17.3875,-25.7962,0.5100,46.8288,211.7992,-22.5937,-7.3257,92.1852,0.00000000,0.00000000,0.00000000,
5.216100,-0.0387,0.3435,0.9449,0.8718,-0.3714,0.2767,-0.2272,-0.0799,-0.0388,936.2087,17.3875,-25.7962,0.5100,46.8288,211.7992,-22.5937,-7.3257,92.1852,0.00000000,0.00000000,0.00000000,
5.232830,-0.0660,0.2743,0.9850,0.8718,-0.3714,0.2767,-0.2272,-0.0799,-0.0388,936.2087,17.3875,-25.7962,0.5100,46.8288,211.7992,-22.5937,-7.3257,92.1852,0.00000000,0.00000000,0.00000000,
5.234302,-0.0660,0.2743,0.9850,0.7667,-1.1161,0.7217,-0.2272,-0.0799,-0.0388,936.2087,17.3875,-25.7962,0.5100,46.8288,211.7992,-22.5937,-7.3257,92.1852,0.00000000,0.00000000,0.00000000,
5.235051,-0.0660,0.2743,0.9850,0.7667,-1.1161,0.7217,-0.2272,-0.0799,-0.0388,936.2087,17.3875,-25.7962,0.5100,46.8288,211.6908,-23.0741,-8.2883,92.1852,0.00000000,0.00000000,0.00000000,
5.251288,-0.0660,0.2743,0.9850,0.7667,-1.1161,0.7217,0.2234,0.1860,-0.0200,936.2087,17.3875,-25.7962,0.5100,46.8288,211.6908,-23.0741,-8.2883,92.1852,0.00000000,0.00000000,0.00000000,
5.255540,-0.0660,0.2743,0.9850,0.7667,-1.1161,0.7217,0.2234,0.1860,-0.0200,936.2057,17.3875,-25.7962,0.5100,46.8288,211.6908,-23.0741,-8.2883,92.1852,0.00000000,0.00000000,0.00000000,
5.273434,-0.0660,0.2743,0.9850,0.7667,-1.1161,0.7217,0.2234,0.1860,-0.0200,936.2057,17.4662,-25.9387,0.8100,46.8288,211.6908,-23.0741,-8.2883,92.1852,0.00000000,0.00000000,0.00000000,
5.300197,-0.0734,0.3283,0.9068,0.7667,-1.1161,0.7217,0.2234,0.1860,-0.0200,936.2057,17.4662,-25.9387,0.8100,46.8288,211.6908,-23.0741,-8.2883,92.1852,0.00000000,0.00000000,0.00000000,
5.301769,-0.0734,0.3283,0.9068,0.6531,-0.6190,-0.0369,0.2234,0.1860,-0.0200,936.2057,17.4662,-25.9387,0.8100,46.8288,211.6908,-23.0741,-8.2883,92.1852,0.00000000,0.00000000,0.00000000,
5.302878,-0.0734,0.3283,0.9068,0.6531,-0.6190,-0.0369,0.2234,0.1860,-0.0200,936.2057,17.4662,-25.9387,0.8100,46.8288,211.6973,-23.2676,-8.0442,92.1852,0.00000000,0.00000000,0.00000000,
5.319477,-0.0734,0.3283,0.9068,0.6531,-0.6190,-0.0369,-0.0368,0.0194,-0.0313,936.2057,17.4662,-25.9387,0.8100,46.8288,211.6973,-23.2676,-8.0442,91.9234,0.00000000,0.00000000,0.00000000,
5.333646,-0.0734,0.3283,0.9068,0.6531,-0.6190,-0.0369,-0.0368,0.0194,-0.0313,936.2057,17.3775,-25.7550,0.6375,46.8288,211.6973,-23.2676,-8.0442,91.9234,0.00000000,0.00000000,0.00000000,
5.335295,-0.0734,0.3283,0.9068,0.6531,-0.6190,-0.0369,-0.0368,0.0194,-0.0313,936.2210,17.3775,-25.7550,0.6375,46.8288,211.6973,-23.2676,-8.0442,91.9234,0.00000000,0.00000000,0.00000000,
5.367430,-0.1432,0.3225,1.0054,0.6531,-0.6190,-0.0369,-0.0368,0.0194,-0.0313,936.2210,17.3775,-25.7550,0.6375,46.8288,211.6973,-23.2676,-8.0442,91.9234,0.00000000,0.00000000,0.00000000,
5.369497,-0.1432,0.3225,1.0054,0.0237,-0.7009,0.9486,-0.0368,0.0194,-0.0313,936.2210,17.3775,-25.7550,0.6375,46.8288,211.6973,-23.2676,-8.0442,91.9234,0.00000000,0.00000000,0.00000000,
5.370240,-0.1432,0.3225,1.0054,0.0237,-0.7009,0.9486,-0.0368,0.0194,-0.0313,936.2210,17.3775,-25.7550,0.6375,46.8288,211.4688,-23.4483,-8.3634,91.9234,0.00000000,0.00000000,0.00000000,
5.386318,-0.1432,0.3225,1.0054,0.0237,-0.7009,0.9486,0.1691,-0.0006,0.0759,936.2210,17.3775,-25.7550,0.6375,46.8288,211.4688,-23.4483,-8.3634,91.9234,0.00000000,0.00000000,0.00000000,
5.391792,-0.1432,0.3225,1.0054,0.0237,-0.7009,0.9486,0.1691,-0.0006,0.0759,936.2210,17.7337,-25.6087,0.6463,46.8288,211.4688,-23.4483,-8.3634,91.9234,0.00000000,0.00000000,0.00000000,
5.416315,-0.1432,0.3225,1.0054,0.0237,-0.7009,0.9486,0.1691,-0.0006,0.0759,936.1930,17.7337,-25.6087,0.6463,46.8288,211.4688,-23.4483,-8.3634,91.9234,0.00000000,0.00000000,0.00000000,
5.433812,-0.0479,0.3559,1.0000,0.0237,-0.7009,0.9486,0.1691,-0.0006,0.0759,936.1930,17.7337,-25.6087,0.6463,46.8288,211.4688,-23.4483,-8.3634,91.9234,0.00000000,0.00000000,0.00000000,
5.435510,-0.0479,0.3559,1.0000,0.8508,-0.5036,0.9362,0.1691,-0.0006,0.0759,936.1930,17.7337,-25.6087,0.6463,46.8288,211.4688,-23.4483,-8.3634,91.9234,0.00000000,0.00000000,0.00000000,
5.436387,-0.0479,0.3559,1.0000,0.8508,-0.5036,0.9362,0.1691,-0.0006,0.0759,936.1930,17.7337,-25.6087,0.6463,46.8288,211.4575,-24.2437,-7.7312,91.9234,0.00000000,0.00000000,0.00000000,
5.453283,-0.0479,0.3559,1.0000,0.8508,-0.5036,0.9362,0.1324,-0.0550,0.0244,936.1930,17.7337,-25.6087,0.6463,46.8288,211.4575,-24.2437,-7.7312,91.9234,0.00000000,0.00000000,0.00000000,
5.456486,-0.0479,0.3559,1.0000,0.8508,-0.5036,0.9362,0.1324,-0.0550,0.0244,936.2062,17.7337,-25.6087,0.6463,46.8288,211.4575,-24.2437,-7.7312,91.9234,0.00000000,0.00000000,0.00000000,
5.472568,-0.0479,0.3559,1.0000,0.8508,-0.5036,0.9362,0.1324,-0.0550,0.0244,936.2062,17.2675,-25.3737,0.8350,46.8288,211.4575,-24.2437,-7.7312,91.9234,0.00000000,0.00000000,0.00000000,
5.501299,-0.0766,0.3393,1.0582,0.8508,-0.5036,0.9362,0.1324,-0.0550,0.0244,936.2062,17.2675,-25.3737,0.8350,46.8288,211.4575,-24.2437,-7.7312,91.9234,0.00000000,0.00000000,0.00000000,
5.503579,-0.0766,0.3393,1.0582,0.6459,-0.7702,1.5661,0.1324,-0.0550,0.0244,936.2062,17.2675,-25.3737,0.8350,46.8288,211.4575,-24.2437,-7.7312,91.9234,0.00000000,0.00000000,0.00000000,
5.504479,-0.0766,0.3393,1.0582,0.6459,-0.7702,1.5661,0.1324,-0.0550,0.0244,936.2062,17.2675,-25.3737,0.8350,46.8288,210.9882,-24.9434,-8.1857,91.9234,0.00000000,0.00000000,0.00000000,
5.519706,-0.0766,0.3393,1.0582,0.6459,-0.7702,1.5661,0.2926,0.1304,0.1254,936.2062,17.2675,-25.3737,0.8350,46.8288,210.9882,-24.9434,-8.1857,91.9234,0.00000000,0.00000000,0.00000000,
5.531157,-0.0766,0.3393,1.0582,0.6459,-0.7702,1.5661,0.2926,0.1304,0.1254,936.2062,17.5275,-25.6087,1.4137,46.8288,210.9882,-24.9434,-8.1857,91.9234,0.00000000,0.00000000,0.00000000,
5.535723,-0.0766,0.3393,1.0582,0.6459,-0.7702,1.5661,0.2926,0.1304,0.1254,936.1992,17.5275,-25.6087,1.4137,46.8288,210.9882,-24.9434,-8.1857,91.9234,0.00000000,0.00000000,0.00000000,
5.568109,-0.0489,0.4154,0.9025,0.6459,-0.7702,1.5661,0.2926,0.1304,0.1254,936.1992,17.5275,-25.6087,1.4137,46.8288,210.9882,-24.9434,-8.1857,91.9234,0.00000000,0.00000000,0.00000000,
5.572739,-0.0489,0.4154,0.9025,0.9292,-0.2780,0.1646,0.2926,0.1304,0.1254,936.1992,17.5275,-25.6087,1.4137,46.8288,210.9882,-24.9434,-8.1857,91.9234,0.00000000,0.00000000,0.00000000,
5.573717,-0.0489,0.4154,0.9025,0.9292,-0.2780,0.1646,0.2926,0.1304,0.1254,936.1992,17.5275,-25.6087,1.4137,46.8288,210.4851,-26.6101,-8.2542,91.9234,0.00000000,0.00000000,0.00000000,
5.587030,-0.0489,0.4154,0.9025,0.9292,-0.2780,0.1646,0.2908,0.0144,0.0843,936.1992,17.5275,-25.6087,1.4137,46.8288,210.4851,-26.6101,-8.2542,91.9234,0.00000000,0.00000000,0.00000000,
5.591784,-0.0489,0.4154,0.9025,0.9292,-0.2780,0.1646,0.2908,0.0144,0.0843,936.1992,16.8750,-25.9637,2.5462,46.8288,210.4851,-26.6101,-8.2542,91.9234,0.00000000,0.00000000,0.00000000,
5.592871,-0.0489,0.4154,0.9025,0.9292,-0.2780,0.1646,0.2908,0.0144,0.0843,936.1992,16.8750,-25.9637,2.5462,41.5788,210.4851,-26.6101,-8.2542,91.9234,0.00000000,0.00000000,0.00000000,
5.616545,-0.0489,0.4154,0.9025,0.9292,-0.2780,0.1646,0.2908,0.0144,0.0843,936.1743,16.8750,-25.9637,2.5462,41.5788,210.4851,-26.6101,-8.2542,90.6723,0.00000000,0.00000000,0.00000000,
5.635310,-0.0518,0.3814,0.9066,0.9292,-0.2780,0.1646,0.2908,0.0144,0.0843,936.1743,16.8750,-25.9637,2.5462,41.5788,210.4851,-26.6101,-8.2542,90.6723,0.00000000,0.00000000,0.00000000,
5.636987,-0.0518,0.3814,0.9066,0.8372,-0.6493,0.2140,0.2908,0.0144,0.0843,936.1743,16.8750,-25.9637,2.5462,41.5788,210.4851,-26.6101,-8.2542,90.6723,0.00000000,0.00000000,0.00000000,
5.637734,-0.0518,0.3814,0.9066,0.8372,-0.6493,0.2140,0.2908,0.0144,0.0843,936.1743,16.8750,-25.9637,2.5462,41.5788,210.5014,-26.8400,-7.8781,90.6723,0.00000000,0.00000000,0.00000000,
5.654278,-0.0518,0.3814,0.9066,0.8372,-0.6493,0.2140,0.0521,-0.0373,0.0119,936.1743,16.8750,-25.9637,2.5462,41.5788,210.5014,-26.8400,-7.8781,90.6723,0.00000000,0.00000000,0.00000000,
5.655845,-0.0518,0.3814,0.9066,0.8372,-0.6493,0.2140,0.0521,-0.0373,0.0119,936.1845,16.8750,-25.9637,2.5462,41.5788,210.5014,-26.8400,-7.8781,90.6723,0.00000000,0.00000000,0.00000000,
5.670097,-0.0518,0.3814,0.9066,0.8372,-0.6493,0.2140,0.0521,-0.0373,0.0119,936.1845,16.9125,-25.9225,2.7362,41.5788,210.5014,-26.8400,-7.8781,90.6723,0.00000000,0.00000000,0.00000000,
5.693923,-0.0518,0.3814,0.9066,0.8372,-0.6493,0.2140,0.0521,-0.0373,0.0119,936.1845,16.9125,-25.9225,2.7362,37.0212,210.5014,-26.8400,-7.8781,90.6723,0.00000000,0.00000000,0.00000000,
5.702604,-0.0906,0.2922,0.8477,0.8372,-0.6493,0.2140,0.0521,-0.0373,0.0119,936.1845,16.9125,-25.9225,2.7362,37.0212,210.5014,-26.8400,-7.8781,90.6723,0.00000000,0.00000000,0.00000000,
5.704079,-0.0906,0.2922,0.8477,0.3353,-1.5329,-0.3767,0.0521,-0.0373,0.0119,936.1845,16.9125,-25.9225,2.7362,37.0212,210.5014,-26.8400,-7.8781,90.6723,0.00000000,0.00000000,0.00000000,
5.704883,-0.0906,0.2922,0.8477,0.3353,-1.5329,-0.3767,0.0521,-0.0373,0.0119,936.1845,16.9125,-25.9225,2.7362,37.0212,210.3298,-26.8511,-7.1658,90.6723,0.00000000,0.00000000,0.00000000,
5.721772,-0.0906,0.2922,0.8477,0.3353,-1.5329,-0.3767,0.0089,-0.2862,0.2251,936.1845,16.9125,-25.9225,2.7362,37.0212,210.3298,-26.8511,-7.1658,90.6723,0.00000000,0.00000000,0.00000000,
5.729443,-0.0906,0.2922,0.8477,0.3353,-1.5329,-0.3767,0.0089,-0.2862,0.2251,936.1845,16.4750,-26.1875,2.6112,37.0212,210.3298,-26.8511,-7.1658,90.6723,0.00000000,0.00000000,0.00000000,
5.736169,-0.0906,0.2922,0.8477,0.3353,-1.5329,-0.3767,0.0089,-0.2862,0.2251,936.1998,16.4750,-26.1875,2.6112,37.0212,210.3298,-26.8511,-7.1658,90.6723,0.00000000,0.00000000,0.00000000,
5.770624,-0.0212,0.4081,0.9586,0.3353,-1.5329,-0.3767,0.0089,-0.2862,0.2251,936.1998,16.4750,-26.1875,2.6112,37.0212,210.3298,-26.8511,-7.1658,90.6723,0.00000000,0.00000000,0.00000000,
5.772031,-0.0212,0.4081,0.9586,0.5540,-0.4921,0.7058,0.0089,-0.2862,0.2251,936.1998,16.4750,-26.1875,2.6112,37.0212,210.3298,-26.8511,-7.1658,90.6723,0.00000000,0.00000000,0.00000000,
5.773013,-0.0212,0.4081,0.9586,0.5540,-0.4921,0.7058,0.0089,-0.2862,0.2251,936.1998,16.4750,-26.1875,2.6112,37.0212,210.0544,-27.3344,-4.4568,90.6723,0.00000000,0.00000000,0.00000000,
5.790297,-0.0212,0.4081,0.9586,0.5540,-0.4921,0.7058,0.1335,-0.5997,0.3552,936.1998,16.4750,-26.1875,2.6112,37.0212,210.0544,-27.3344,-4.4568,90.6723,0.00000000,0.00000000,0.00000000,
5.792056,-0.0212,0.4081,0.9586,0.5540,-0.4921,0.7058,0.1335,-0.5997,0.3552,936.1998,16.3737,-26.6925,2.3775,37.0212,210.0544,-27.3344,-4.4568,90.6723,0.00000000,0.00000000,0.00000000,
5.795868,-0.0212,0.4081,0.9586,0.5540,-0.4921,0.7058,0.1335,-0.5997,0.3552,936.1998,16.3737,-26.6925,2.3775,33.8062,210.0544,-27.3344,-4.4568,90.6723,0.00000000,0.00000000,0.00000000,
5.815915,-0.0212,0.4081,0.9586,0.5540,-0.4921,0.7058,0.1335,-0.5997,0.3552,936.2000,16.3737,-26.6925,2.3775,33.8062,210.0544,-27.3344,-4.4568,90.6723,0.00000000,0.00000000,0.00000000,
5.836806,0.1015,0.5167,0.9854,0.5540,-0.4921,0.7058,0.1335,-0.5997,0.3552,936.2000,16.3737,-26.6925,2.3775,33.8062,210.0544,-27.3344,-4.4568,90.6723,0.00000000,0.00000000,0.00000000,
5.838309,0.1015,0.5167,0.9854,1.6156,0.5792,0.9539,0.1335,-0.5997,0.3552,936.2000,16.3737,-26.6925,2.3775,33.8062,210.0544,-27.3344,-4.4568,90.6723,0.00000000,0.00000000,0.00000000,
5.839111,0.1015,0.5167,0.9854,1.6156,0.5792,0.9539,0.1335,-0.5997,0.3552,936.2000,16.3737,-26.6925,2.3775,33.8062,210.3320,-27.2586,-3.6285,90.6723,0.00000000,0.00000000,0.00000000,
5.857244,0.1015,0.5167,0.9854,1.6156,0.5792,0.9539,-0.0887,-0.0267,-0.1394,936.2000,16.3737,-26.6925,2.3775,33.8062,210.3320,-27.2586,-3.6285,90.6723,0.00000000,0.00000000,0.00000000,
5.858922,0.1015,0.5167,0.9854,1.6156,0.5792,0.9539,-0.0887,-0.0267,-0.1394,936.2059,16.3737,-26.6925,2.3775,33.8062,210.3320,-27.2586,-3.6285,90.6723,0.00000000,0.00000000,0.00000000,
5.872411,0.1015,0.5167,0.9854,1.6156,0.5792,0.9539,-0.0887,-0.0267,-0.1394,936.2059,15.8237,-27.2062,2.0987,33.8062,210.3320,-27.2586,-3.6285,90.6723,0.00000000,0.00000000,0.00000000,
5.904408,0.0007,0.3983,0.8409,1.6156,0.5792,0.9539,-0.0887,-0.0267,-0.1394,936.2059,15.8237,-27.2062,2.0987,33.8062,210.3320,-27.2586,-3.6285,90.2880,0.00000000,0.00000000,0.00000000,
5.906681,0.0007,0.3983,0.8409,0.9053,-0.4120,-0.5231,-0.0887,-0.0267,-0.1394,936.2059,15.8237,-27.2062,2.0987,33.8062,210.3320,-27.2586,-3.6285,90.2880,0.00000000,0.00000000,0.00000000,
5.907512,0.0007,0.3983,0.8409,0.9053,-0.4120,-0.5231,-0.0887,-0.0267,-0.1394,936.2059,15.8237,-27.2062,2.0987,33.8062,211.1488,-26.2151,-5.2542,90.2880,0.00000000,0.00000000,0.00000000,
5.923502,0.0007,0.3983,0.8409,0.9053,-0.4120,-0.5231,-0.3748,0.2422,-0.3952,936.2059,15.8237,-27.2062,2.0987,33.8062,211.1488,-26.2151,-5.2542,90.2880,0.00000000,0.00000000,0.00000000,
5.927692,0.0007,0.3983,0.8409,0.9053,-0.4120,-0.5231,-0.3748,0.2422,-0.3952,936.2059,17.2700,-26.6075,1.7062,33.8062,211.1488,-26.2151,-5.2542,90.2880,0.00000000,0.00000000,0.00000000,
5.936905,0.0007,0.3983,0.8409,0.9053,-0.4120,-0.5231,-0.3748,0.2422,-0.3952,936.1953,17.2700,-26.6075,1.7062,33.8062,211.1488,-26.2151,-5.2542,90.2880,0.00000000,0.00000000,0.00000000,
5.971855,-0.0566,0.3445,0.9872,0.9053,-0.4120,-0.5231,-0.3748,0.2422,-0.3952,936.1953,17.2700,-26.6075,1.7062,33.8062,211.1488,-26.2151,-5.2542,90.2880,0.00000000,0.00000000,0.00000000,
5.974326,-0.0566,0.3445,0.9872,0.3632,-0.6314,0.7677,-0.3748,0.2422,-0.3952,936.1953,17.2700,-26.6075,1.7062,33.8062,211.1488,-26.2151,-5.2542,90.2880,0.00000000,0.00000000,0.00000000,
5.975457,-0.0566,0.3445,0.9872,0.3632,-0.6314,0.7677,-0.3748,0.2422,-0.3952,936.1953,17.2700,-26.6075,1.7062,33.8062,212.4374,-24.2238,-5.3697,90.2880,0.00000000,0.00000000,0.00000000,
5.990689,-0.0566,0.3445,0.9872,0.3632,-0.6314,0.7677,-0.3541,-0.1805,-0.2556,936.1953,17.2700,-26.6075,1.7062,33.8062,212.4374,-24.2238,-5.3697,90.2880,0.00000000,0.00000000,0.00000000,
6.007897,-0.0566,0.3445,0.9872,0.3632,-0.6314,0.7677,-0.3541,-0.1805,-0.2556,936.1953,17.5925,-26.4487,1.1325,33.8062,212.4374,-24.2238,-5.3697,90.2880,0.00000000,0.00000000,0.00000000,
6.016570,-0.0566,0.3445,0.9872,0.3632,-0.6314,0.7677,-0.3541,-0.1805,-0.2556,936.2491,17.5925,-26.4487,1.1325,33.8062,212.4374,-24.2238,-5.3697,90.2880,0.00000000,0.00000000,0.00000000,
6.038789,-0.0267,0.3286,0.9301,0.3632,-0.6314,0.7677,-0.3541,-0.1805,-0.2556,936.2491,17.5925,-26.4487,1.1325,33.8062,212.4374,-24.2238,-5.3697,90.2880,0.00000000,0.00000000,0.00000000,
6.040667,-0.0267,0.3286,0.9301,0.6149,-0.6762,0.1556,-0.3541,-0.1805,-0.2556,936.2491,17.5925,-26.4487,1.1325,33.8062,212.4374,-24.2238,-5.3697,90.2880,0.00000000,0.00000000,0.00000000,
6.041537,-0.0267,0.3286,0.9301,0.6149,-0.6762,0.1556,-0.3541,-0.1805,-0.2556,936.2491,17.5925,-26.4487,1.1325,33.8062,213.1871,-23.5056,-5.1285,90.2880,0.00000000,0.00000000,0.00000000,
6.055941,-0.0267,0.3286,0.9301,0.6149,-0.6762,0.1556,-0.3541,-0.1805,-0.2556,936.2625,17.5925,-26.4487,1.1325,33.8062,213.1871,-23.5056,-5.1285,90.2880,0.00000000,0.00000000,0.00000000,
6.057446,-0.0267,0.3286,0.9301,0.6149,-0.6762,0.1556,-0.1909,-0.0538,-0.1161,936.2625,17.5925,-26.4487,1.1325,33.8062,213.1871,-23.5056,-5.1285,90.2880,0.00000000,0.00000000,0.00000000,
6.066910,-0.0267,0.3286,0.9301,0.6149,-0.6762,0.1556,-0.1909,-0.0538,-0.1161,936.2625,18.5462,-26.3587,0.7287,33.8062,213.1871,-23.5056,-5.1285,90.2880,0.00000000,0.00000000,0.00000000,
6.106738,0.0099,0.3786,0.8938,0.6149,-0.6762,0.1556,-0.1909,-0.0538,-0.1161,936.2625,18.5462,-26.3587,0.7287,33.8062,213.1871,-23.5056,-5.1285,90.2880,0.00000000,0.00000000,0.00000000,
6.109171,0.0099,0.3786,0.8938,0.8887,-0.1409,-0.2289,-0.1909,-0.0538,-0.1161,936.2625,18.5462,-26.3587,0.7287,33.8062,213.1871,-23.5056,-5.1285,90.2880,0.00000000,0.00000000,0.00000000,
6.109991,0.0099,0.3786,0.8938,0.8887,-0.1409,-0.2289,-0.1909,-0.0538,-0.1161,936.2625,18.5462,-26.3587,0.7287,33.8062,213.8499,-23.1937,-4.6285,90.2880,0.00000000,0.00000000,0.00000000,
6.125057,0.0099,0.3786,0.8938,0.8887,-0.1409,-0.2289,0.0359,-0.3202,-0.1429,936.2625,18.5462,-26.3587,0.7287,33.8062,213.8499,-23.1937,-4.6285,90.2880,0.00000000,0.00000000,0.00000000,
6.126679,0.0099,0.3786,0.8938,0.8887,-0.1409,-0.2289,0.0359,-0.3202,-0.1429,936.2625,19.2262,-26.0637,0.5150,33.8062,213.8499,-23.1937,-4.6285,90.2880,0.00000000,0.00000000,0.00000000,
6.135542,0.0099,0.3786,0.8938,0.8887,-0.1409,-0.2289,0.0359,-0.3202,-0.1429,936.2606,19.2262,-26.0637,0.5150,33.8062,213.8499,-23.1937,-4.6285,90.2880,0.00000000,0.00000000,0.00000000,
6.173435,0.0505,0.3132,0.8922,0.8887,-0.1409,-0.2289,0.0359,-0.3202,-0.1429,936.2606,19.2262,-26.0637,0.5150,33.8062,213.8499,-23.1937,-4.6285,90.2880,0.00000000,0.00000000,0.00000000,
6.175724,0.0505,0.3132,0.8922,1.2657,-0.8421,-0.2195,0.0359,-0.3202,-0.1429,936.2606,19.2262,-26.0637,0.5150,33.8062,213.8499,-23.1937,-4.6285,90.2880,0.00000000,0.00000000,0.00000000,
6.176639,0.0505,0.3132,0.8922,1.2657,-0.8421,-0.2195,0.0359,-0.3202,-0.1429,936.2606,19.2262,-26.0637,0.5150,33.8062,214.6410,-23.5767,-4.5036,90.2880,0.00000000,0.00000000,0.00000000,
6.191933,0.0505,0.3132,0.8922,1.2657,-0.8421,-0.2195,0.0713,-0.0418,-0.1425,936.2606,19.2262,-26.0637,0.5150,33.8062,214.6410,-23.5767,-4.5036,90.2880,0.00000000,0.00000000,0.00000000,
6.206448,0.0505,0.3132,0.8922,1.2657,-0.8421,-0.2195,0.0713,-0.0418,-0.1425,936.2606,19.8962,-25.9650,-0.0550,33.8062,214.6410,-23.5767,-4.5036,90.0876,0.00000000,0.00000000,0.00000000,
6.216264,0.0505,0.3132,0.8922,1.2657,-0.8421,-0.2195,0.0713,-0.0418,-0.1425,936.3129,19.8962,-25.9650,-0.0550,33.8062,214.6410,-23.5767,-4.5036,90.0876,0.00000000,0.00000000,0.00000000,
6.240428,0.0812,0.3066,0.9604,1.2657,-0.8421,-0.2195,0.0713,-0.0418,-0.1425,936.3129,19.8962,-25.9650,-0.0550,33.8062,214.6410,-23.5767,-4.5036,90.0876,0.00000000,0.00000000,0.00000000,
6.242418,0.0812,0.3066,0.9604,1.3868,-0.9064,0.4349,0.0713,-0.0418,-0.1425,936.3129,19.8962,-25.9650,-0.0550,33.8062,214.6410,-23.5767,-4.5036,90.0876,0.00000000,0.00000000,0.00000000,
6.243302,0.0812,0.3066,0.9604,1.3868,-0.9064,0.4349,0.0713,-0.0418,-0.1425,936.3129,19.8962,-25.9650,-0.0550,33.8062,214.8091,-23.5425,-3.4519,90.0876,0.00000000,0.00000000,0.00000000,
6.256737,0.0812,0.3066,0.9604,1.3868,-0.9064,0.4349,0.0713,-0.0418,-0.1425,936.3029,19.8962,-25.9650,-0.0550,33.8062,214.8091,-23.5425,-3.4519,90.0876,0.00000000,0.00000000,0.00000000,
6.258827,0.0812,0.3066,0.9604,1.3868,-0.9064,0.4349,-0.0066,-0.2095,0.1403,936.3029,19.8962,-25.9650,-0.0550,33.8062,214.8091,-23.5425,-3.4519,90.0876,0.00000000,0.00000000,0.00000000,
6.265541,0.0812,0.3066,0.9604,1.3868,-0.9064,0.4349,-0.0066,-0.2095,0.1403,936.3029,20.2675,-26.2463,-0.3812,33.8062,214.8091,-23.5425,-3.4519,90.0876,0.00000000,0.00000000,0.00000000,
6.307756,0.0649,0.3896,0.9637,1.3868,-0.9064,0.4349,-0.0066,-0.2095,0.1403,936.3029,20.2675,-26.2463,-0.3812,33.8062,214.8091,-23.5425,-3.4519,90.0876,0.00000000,0.00000000,0.00000000,
6.310042,0.0649,0.3896,0.9637,1.1860,0.0259,0.4129,-0.0066,-0.2095,0.1403,936.3029,20.2675,-26.2463,-0.3812,33.8062,214.8091,-23.5425,-3.4519,90.0876,0.00000000,0.00000000,0.00000000,
6.310912,0.0649,0.3896,0.9637,1.1860,0.0259,0.4129,-0.0066,-0.2095,0.1403,936.3029,20.2675,-26.2463,-0.3812,33.8062,213.7548,-22.7782,-3.2162,90.0876,0.00000000,0.00000000,0.00000000,
6.325498,0.0649,0.3896,0.9637,1.1860,0.0259,0.4129,-0.0066,-0.2095,0.1403,936.3029,20.2738,-26.4613,-0.8012,33.8062,213.7548,-22.7782,-3.2162,90.0876,0.00000000,0.00000000,0.00000000,
6.327956,0.0649,0.3896,0.9637,1.1860,0.0259,0.4129,-0.1910,-0.0142,0.3224,936.3029,20.2738,-26.4613,-0.8012,33.8062,213.7548,-22.7782,-3.2162,90.0876,0.00000000,0.00000000,0.00000000,
6.337630,0.0649,0.3896,0.9637,1.1860,0.0259,0.4129,-0.1910,-0.0142,0.3224,936.3747,20.2738,-26.4613,-0.8012,33.8062,213.7548,-22.7782,-3.2162,90.0876,0.00000000,0.00000000,0.00000000,
6.375061,0.0616,0.3923,1.1088,1.1860,0.0259,0.4129,-0.1910,-0.0142,0.3224,936.3747,20.2738,-26.4613,-0.8012,33.8062,213.7548,-22.7782,-3.2162,90.0876,0.00000000,0.00000000,0.00000000,
6.377337,0.0616,0.3923,1.1088,0.7778,-0.2734,1.9642,-0.1910,-0.0142,0.3224,936.3747,20.2738,-26.4613,-0.8012,33.8062,213.7548,-22.7782,-3.2162,90.0876,0.00000000,0.00000000,0.00000000,
6.378259,0.0616,0.3923,1.1088,0.7778,-0.2734,1.9642,-0.1910,-0.0142,0.3224,936.3747,20.2738,-26.4613,-0.8012,33.8062,213.1039,-24.8211,-1.0165,90.0876,0.00000000,0.00000000,0.00000000,
6.393728,0.0616,0.3923,1.1088,0.7778,-0.2734,1.9642,0.7642,-0.5956,0.4169,936.3747,20.2738,-26.4613,-0.8012,33.8062,213.1039,-24.8211,-1.0165,90.0876,0.00000000,0.00000000,0.00000000,
6.405176,0.0616,0.3923,1.1088,0.7778,-0.2734,1.9642,0.7642,-0.5956,0.4169,936.3747,19.5262,-27.2137,-0.9162,33.8062,213.1039,-24.8211,-1.0165,90.0876,0.00000000,0.00000000,0.00000000,
6.416583,0.0616,0.3923,1.1088,0.7778,-0.2734,1.9642,0.7642,-0.5956,0.4169,936.3681,19.5262,-27.2137,-0.9162,33.8062,213.1039,-24.8211,-1.0165,90.0876,0.00000000,0.00000000,0.00000000,
6.442019,0.2222,0.4134,0.8248,0.7778,-0.2734,1.9642,0.7642,-0.5956,0.4169,936.3681,19.5262,-27.2137,-0.9162,33.8062,213.1039,-24.8211,-1.0165,90.0876,0.00000000,0.00000000,0.00000000,
6.443952,0.2222,0.4134,0.8248,2.0146,-0.3992,-0.6577,0.7642,-0.5956,0.4169,936.3681,19.5262,-27.2137,-0.9162,33.8062,213.1039,-24.8211,-1.0165,90.0876,0.00000000,0.00000000,0.00000000,
6.444633,0.2222,0.4134,0.8248,2.0146,-0.3992,-0.6577,0.7642,-0.5956,0.4169,936.3681,19.5262,-27.2137,-0.9162,33.8062,212.8033,-26.9832,0.9523,90.0876,0.00000000,0.00000000,0.00000000,
6.457608,0.2222,0.4134,0.8248,2.0146,-0.3992,-0.6577,0.7642,-0.5956,0.4169,936.3337,19.5262,-27.2137,-0.9162,33.8062,212.8033,-26.9832,0.9523,90.0876,0.00000000,0.00000000,0.00000000,
6.460401,0.2222,0.4134,0.8248,2.0146,-0.3992,-0.6577,0.3033,-0.2451,0.1852,936.3337,19.5262,-27.2137,-0.9162,33.8062,212.8033,-26.9832,0.9523,90.0876,0.00000000,0.00000000,0.00000000,
6.463243,0.2222,0.4134,0.8248,2.0146,-0.3992,-0.6577,0.3033,-0.2451,0.1852,936.3337,19.3225,-27.9887,-0.0388,33.8062,212.8033,-26.9832,0.9523,90.0876,0.00000000,0.00000000,0.00000000,
6.509020,0.1751,0.4378,0.7892,2.0146,-0.3992,-0.6577,0.3033,-0.2451,0.1852,936.3337,19.3225,-27.9887,-0.0388,33.8062,212.8033,-26.9832,0.9523,89.5741,0.00000000,0.00000000,0.00000000,
6.511381,0.1751,0.4378,0.7892,1.4171,-0.1503,-1.0076,0.3033,-0.2451,0.1852,936.3337,19.3225,-27.9887,-0.0388,33.8062,212.8033,-26.9832,0.9523,89.5741,0.00000000,0.00000000,0.00000000,
6.512620,0.1751,0.4378,0.7892,1.4171,-0.1503,-1.0076,0.3033,-0.2451,0.1852,936.3337,19.3225,-27.9887,-0.0388,33.8062,213.0454,-26.9346,1.7431,89.5741,0.00000000,0.00000000,0.00000000,
6.523793,0.1751,0.4378,0.7892,1.4171,-0.1503,-1.0076,0.3033,-0.2451,0.1852,936.3337,18.8037,-28.0562,-0.3462,33.8062,213.0454,-26.9346,1.7431,89.5741,0.00000000,0.00000000,0.00000000,
6.527555,0.1751,0.4378,0.7892,1.4171,-0.1503,-1.0076,-0.0052,-0.3166,0.0093,936.3337,18.8037,-28.0562,-0.3462,33.8062,213.0454,-26.9346,1.7431,89.5741,0.00000000,0.00000000,0.00000000,
6.539040,0.1751,0.4378,0.7892,1.4171,-0.1503,-1.0076,-0.0052,-0.3166,0.0093,936.3360,18.8037,-28.0562,-0.3462,33.8062,213.0454,-26.9346,1.7431,89.5741,0.00000000,0.00000000,0.00000000,
6.576470,0.1751,0.4378,0.7892,1.0294,0.1375,0.1100,-0.0052,-0.3166,0.0093,936.3360,18.8037,-28.0562,-0.3462,33.8062,213.0454,-26.9346,1.7431,89.5741,0.00000000,0.00000000,0.00000000,
6.578374,0.1580,0.4659,0.9029,1.0294,0.1375,0.1100,-0.0052,-0.3166,0.0093,936.3360,18.8037,-28.0562,-0.3462,33.8062,213.0454,-26.9346,1.7431,89.5741,0.00000000,0.00000000,0.00000000,
6.579274,0.1580,0.4659,0.9029,1.0294,0.1375,0.1100,-0.0052,-0.3166,0.0093,936.3360,18.8037,-28.0562,-0.3462,33.8062,213.6767,-26.8719,3.0309,89.5741,0.00000000,0.00000000,0.00000000,
6.595102,0.1580,0.4659,0.9029,1.0294,0.1375,0.1100,-0.0564,-0.2932,0.0102,936.3360,18.8037,-28.0562,-0.3462,33.8062,213.6767,-26.8719,3.0309,89.5741,0.00000000,0.00000000,0.00000000,
6.603394,0.1580,0.4659,0.9029,1.0294,0.1375,0.1100,-0.0564,-0.2932,0.0102,936.3360,18.8175,-28.1375,-0.9800,33.8062,213.6767,-26.8719,3.0309,89.5741,0.00000000,0.00000000,0.00000000,
6.615994,0.1580,0.4659,0.9029,1.0294,0.1375,0.1100,-0.0564,-0.2932,0.0102,936.3600,18.8175,-28.1375,-0.9800,33.8062,213.6767,-26.8719,3.0309,89.5741,0.00000000,0.00000000,0.00000000,
6.644076,0.1193,0.4393,1.0289,1.0294,0.1375,0.1100,-0.0564,-0.2932,0.0102,936.3600,18.8175,-28.1375,-0.9800,33.8062,213.6767,-26.8719,3.0309,89.5741,0.00000000,0.00000000,0.00000000,
6.646762,0.1193,0.4393,1.0289,0.4907,-0.1291,1.3586,-0.0564,-0.2932,0.0102,936.3600,18.8175,-28.1375,-0.9800,33.8062,213.6767,-26.8719,3.0309,89.5741,0.00000000,0.00000000,0.00000000,
6.647929,0.1193,0.4393,1.0289,0.4907,-0.1291,1.3586,-0.0564,-0.2932,0.0102,936.3600,18.8175,-28.1375,-0.9800,33.8062,213.9343,-26.9432,3.9679,89.5741,0.00000000,0.00000000,0.00000000,
6.655778,0.1193,0.4393,1.0289,0.4907,-0.1291,1.3586,-0.0564,-0.2932,0.0102,936.3485,18.8175,-28.1375,-0.9800,33.8062,213.9343,-26.9432,3.9679,89.5741,0.00000000,0.00000000,0.00000000,
6.662514,0.1193,0.4393,1.0289,0.4907,-0.1291,1.3586,0.1046,-0.1985,0.0793,936.3485,18.8175,-28.1375,-0.9800,33.8062,213.9343,-26.9432,3.9679,89.5741,0.00000000,0.00000000,0.00000000,
6.663935,0.1193,0.4393,1.0289,0.4907,-0.1291,1.3586,0.1046,-0.1985,0.0793,936.3485,17.9513,-27.8150,-1.7012,33.8062,213.9343,-26.9432,3.9679,89.5741,0.00000000,0.00000000,0.00000000,
6.711656,0.1193,0.4393,1.0289,1.4279,0.0546,0.1676,0.1046,-0.1985,0.0793,936.3485,17.9513,-27.8150,-1.7012,33.8062,213.9343,-26.9432,3.9679,89.5741,0.00000000,0.00000000,0.00000000,
6.714483,0.2172,0.4657,0.9032,1.4279,0.0546,0.1676,0.1046,-0.1985,0.0793,936.3485,17.9513,-27.8150,-1.7012,33.8062,213.9343,-26.9432,3.9679,89.5741,0.00000000,0.00000000,0.00000000,
6.715491,0.2172,0.4657,0.9032,1.4279,0.0546,0.1676,0.1046,-0.1985,0.0793,936.3485,17.9513,-27.8150,-1.7012,33.8062,213.1483,-27.4413,4.0943,89.5741,0.00000000,0.00000000,0.00000000,
6.721654,0.2172,0.4657,0.9032,1.4279,0.0546,0.1676,0.1046,-0.1985,0.0793,936.3485,18.0187,-28.5162,-1.5025,33.8062,213.1483,-27.4413,4.0943,89.5741,0.00000000,0.00000000,0.00000000,
6.729625,0.2172,0.4657,0.9032,1.4279,0.0546,0.1676,0.0912,0.0550,0.2005,936.3485,18.0187,-28.5162,-1.5025,33.8062,213.1483,-27.4413,4.0943,89.5741,0.00000000,0.00000000,0.00000000,
6.735182,0.2172,0.4657,0.9032,1.4279,0.0546,0.1676,0.0912,0.0550,0.2005,936.3519,18.0187,-28.5162,-1.5025,33.8062,213.1483,-27.4413,4.0943,89.5741,0.00000000,0.00000000,0.00000000,
6.778201,0.2561,0.4795,0.9734,1.4279,0.0546,0.1676,0.0912,0.0550,0.2005,936.3519,18.0187,-28.5162,-1.5025,33.8062,213.1483,-27.4413,4.0943,89.5741,0.00000000,0.00000000,0.00000000,
6.780504,0.2561,0.4795,0.9734,1.7314,0.1686,0.8730,0.0912,0.0550,0.2005,936.3519,18.0187,-28.5162,-1.5025,33.8062,213.1483,-27.4413,4.0943,89.5741,0.00000000,0.00000000,0.00000000,
6.781355,0.2561,0.4795,0.9734,1.7314,0.1686,0.8730,0.0912,0.0550,0.2005,936.3519,18.0187,-28.5162,-1.5025,33.8062,213.0354,-27.6025,4.5529,89.5741,0.00000000,0.00000000,0.00000000,
6.796836,0.2561,0.4795,0.9734,1.7314,0.1686,0.8730,0.0425,-0.0053,0.0261,936.3519,18.0187,-28.5162,-1.5025,33.8062,213.0354,-27.6025,4.5529,89.5741,0.00000000,0.00000000,0.00000000,
6.801786,0.2561,0.4795,0.9734,1.7314,0.1686,0.8730,0.0425,-0.0053,0.0261,936.3519,18.1300,-28.8387,-1.1875,33.8062,213.0354,-27.6025,4.5529,89.5741,0.00000000,0.00000000,0.00000000,
6.805714,0.2561,0.4795,0.9734,1.7314,0.1686,0.8730,0.0425,-0.0053,0.0261,936.3519,18.1300,-28.8387,-1.1875,30.0600,213.0354,-27.6025,4.5529,89.5741,0.00000000,0.00000000,0.00000000,
6.815854,0.2561,0.4795,0.9734,1.7314,0.1686,0.8730,0.0425,-0.0053,0.0261,936.3075,18.1300,-28.8387,-1.1875,30.0600,213.0354,-27.6025,4.5529,89.2304,0.00000000,0.00000000,0.00000000,
6.845140,0.2293,0.4464,0.8965,1.7314,0.1686,0.8730,0.0425,-0.0053,0.0261,936.3075,18.1300,-28.8387,-1.1875,30.0600,213.0354,-27.6025,4.5529,89.2304,0.00000000,0.00000000,0.00000000,
6.847644,0.2293,0.4464,0.8965,1.5909,-0.1606,0.1116,0.0425,-0.0053,0.0261,936.3075,18.1300,-28.8387,-1.1875,30.0600,213.0354,-27.6025,4.5529,89.2304,0.00000000,0.00000000,0.00000000,
6.848708,0.2293,0.4464,0.8965,1.5909,-0.1606,0.1116,0.0425,-0.0053,0.0261,936.3075,18.1300,-28.8387,-1.1875,30.0600,212.8332,-27.6030,3.8353,89.2304,0.00000000,0.00000000,0.00000000,
6.855725,0.2293,0.4464,0.8965,1.5909,-0.1606,0.1116,0.0425,-0.0053,0.0261,936.3056,18.1300,-28.8387,-1.1875,30.0600,212.8332,-27.6030,3.8353,89.2304,0.00000000,0.00000000,0.00000000,
6.861731,0.2293,0.4464,0.8965,1.5909,-0.1606,0.1116,0.0425,-0.0053,0.0261,936.3056,18.0050,-28.9187,-0.7512,30.0600,212.8332,-27.6030,3.8353,89.2304,0.00000000,0.00000000,0.00000000,
6.864115,0.2293,0.4464,0.8965,1.5909,-0.1606,0.1116,-0.0150,0.1452,-0.0660,936.3056,18.0050,-28.9187,-0.7512,30.0600,212.8332,-27.6030,3.8353,89.2304,0.00000000,0.00000000,0.00000000,
6.913211,0.2293,0.4464,0.8965,1.4232,-0.0810,0.0652,-0.0150,0.1452,-0.0660,936.3056,18.0050,-28.9187,-0.7512,30.0600,212.8332,-27.6030,3.8353,89.2304,0.00000000,0.00000000,0.00000000,
6.916326,0.2127,0.4493,0.8944,1.4232,-0.0810,0.0652,-0.0150,0.1452,-0.0660,936.3056,18.0050,-28.9187,-0.7512,30.0600,212.8332,-27.6030,3.8353,89.2304,0.00000000,0.00000000,0.00000000,
6.917599,0.2127,0.4493,0.8944,1.4232,-0.0810,0.0652,-0.0150,0.1452,-0.0660,936.3056,18.0050,-28.9187,-0.7512,30.0600,213.1308,-27.2662,3.8624,89.2304,0.00000000,0.00000000,0.00000000,
6.931299,0.2127,0.4493,0.8944,1.4232,-0.0810,0.0652,-0.1000,-0.0392,-0.0509,936.3056,18.0050,-28.9187,-0.7512,30.0600,213.1308,-27.2662,3.8624,89.2304,0.00000000,0.00000000,0.00000000,
6.936222,0.2127,0.4493,0.8944,1.4232,-0.0810,0.0652,-0.1000,-0.0392,-0.0509,936.2825,18.0050,-28.9187,-0.7512,30.0600,213.1308,-27.2662,3.8624,89.2304,0.00000000,0.00000000,0.00000000,
6.940263,0.2127,0.4493,0.8944,1.4232,-0.0810,0.0652,-0.1000,-0.0392,-0.0509,936.2825,18.2113,-29.0275,-1.3075,30.0600,213.1308,-27.2662,3.8624,89.2304,0.00000000,0.00000000,0.00000000,
6.979943,0.1990,0.4090,0.8998,1.4232,-0.0810,0.0652,-0.1000,-0.0392,-0.0509,936.2825,18.2113,-29.0275,-1.3075,30.0600,213.1308,-27.2662,3.8624,89.2304,0.00000000,0.00000000,0.00000000,
6.981649,0.1990,0.4090,0.8998,1.3301,-0.4441,0.0991,-0.1000,-0.0392,-0.0509,936.2825,18.2113,-29.0275,-1.3075,30.0600,213.1308,-27.2662,3.8624,89.2304,0.00000000,0.00000000,0.00000000,
6.982449,0.1990,0.4090,0.8998,1.3301,-0.4441,0.0991,-0.1000,-0.0392,-0.0509,936.2825,18.2113,-29.0275,-1.3075,30.0600,213.2336,-27.0518,3.6219,89.2304,0.00000000,0.00000000,0.00000000,
6.998811,0.1990,0.4090,0.8998,1.3301,-0.4441,0.0991,-0.0278,0.0643,-0.0663,936.2825,18.2113,-29.0275,-1.3075,30.0600,213.2336,-27.0518,3.6219,89.2304,0.00000000,0.00000000,0.00000000,
7.000527,0.1990,0.4090,0.8998,1.3301,-0.4441,0.0991,-0.0278,0.0643,-0.0663,936.2825,18.5063,-28.9725,-1.2450,30.0600,213.2336,-27.0518,3.6219,89.2304,0.00000000,0.00000000,0.00000000,
7.016223,0.1990,0.4090,0.8998,1.3301,-0.4441,0.0991,-0.0278,0.0643,-0.0663,936.3453,18.5063,-28.9725,-1.2450,30.0600,213.2336,-27.0518,3.6219,89.2304,0.00000000,0.00000000,0.00000000,
7.046999,0.1990,0.4090,0.8998,1.4864,0.1409,0.3951,-0.0278,0.0643,-0.0663,936.3453,18.5063,-28.9725,-1.2450,30.0600,213.2336,-27.0518,3.6219,89.2304,0.00000000,0.00000000,0.00000000,
7.049104,0.2128,0.4694,0.9298,1.4864,0.1409,0.3951,-0.0278,0.0643,-0.0663,936.3453,18.5063,-28.9725,-1.2450,30.0600,213.2336,-27.0518,3.6219,89.2304,0.00000000,0.00000000,0.00000000,
7.050153,0.2128,0.4694,0.9298,1.4864,0.1409,0.3951,-0.0278,0.0643,-0.0663,936.3453,18.5063,-28.9725,-1.2450,30.0600,213.3240,-27.0928,3.5017,89.2304,0.00000000,0.00000000,0.00000000,
7.055701,0.2128,0.4694,0.9298,1.4864,0.1409,0.3951,-0.0278,0.0643,-0.0663,936.2527,18.5063,-28.9725,-1.2450,30.0600,213.3240,-27.0928,3.5017,89.2304,0.00000000,0.00000000,0.00000000,
7.058691,0.2128,0.4694,0.9298,1.4864,0.1409,0.3951,-0.0278,0.0643,-0.0663,936.2527,18.7775,-28.9912,-1.3537,30.0600,213.3240,-27.0928,3.5017,89.2304,0.00000000,0.00000000,0.00000000,
7.065540,0.2128,0.4694,0.9298,1.4864,0.1409,0.3951,0.0247,0.0011,-0.0139,936.2527,18.7775,-28.9912,-1.3537,30.0600,213.3240,-27.0928,3.5017,89.2304,0.00000000,0.00000000,0.00000000,
7.114252,0.2128,0.4694,0.9298,1.5579,-0.3279,-0.3719,0.0247,0.0011,-0.0139,936.2527,18.7775,-28.9912,-1.3537,30.0600,213.3240,-27.0928,3.5017,88.6081,0.00000000,0.00000000,0.00000000,
7.116676,0.2194,0.4275,0.8486,1.5579,-0.3279,-0.3719,0.0247,0.0011,-0.0139,936.2527,18.7775,-28.9912,-1.3537,30.0600,213.3240,-27.0928,3.5017,88.6081,0.00000000,0.00000000,0.00000000,
7.117620,0.2194,0.4275,0.8486,1.5579,-0.3279,-0.3719,0.0247,0.0011,-0.0139,936.2527,18.7775,-28.9912,-1.3537,30.0600,213.6666,-27.4741,3.4609,88.6081,0.00000000,0.00000000,0.00000000,
7.133049,0.2194,0.4275,0.8486,1.5579,-0.3279,-0.3719,0.0585,-0.0513,-0.0941,936.2527,18.7775,-28.9912,-1.3537,30.0600,213.6666,-27.4741,3.4609,88.6081,0.00000000,0.00000000,0.00000000,
7.136642,0.2194,0.4275,0.8486,1.5579,-0.3279,-0.3719,0.0585,-0.0513,-0.0941,936.2719,18.7775,-28.9912,-1.3537,30.0600,213.6666,-27.4741,3.4609,88.6081,0.00000000,0.00000000,0.00000000,
7.139153,0.2194,0.4275,0.8486,1.5579,-0.3279,-0.3719,0.0585,-0.0513,-0.0941,936.2719,18.2200,-28.6337,-1.4887,30.0600,213.6666,-27.4741,3.4609,88.6081,0.00000000,0.00000000,0.00000000,
7.181467,0.2119,0.4226,0.9102,1.5579,-0.3279,-0.3719,0.0585,-0.0513,-0.0941,936.2719,18.2200,-28.6337,-1.4887,30.0600,213.6666,-27.4741,3.4609,88.6081,0.00000000,0.00000000,0.00000000,
7.183459,0.2119,0.4226,0.9102,1.4511,-0.3326,0.2117,0.0585,-0.0513,-0.0941,936.2719,18.2200,-28.6337,-1.4887,30.0600,213.6666,-27.4741,3.4609,88.6081,0.00000000,0.00000000,0.00000000,
7.184278,0.2119,0.4226,0.9102,1.4511,-0.3326,0.2117,0.0585,-0.0513,-0.0941,936.2719,18.2200,-28.6337,-1.4887,30.0600,213.9607,-27.1937,3.6523,88.6081,0.00000000,0.00000000,0.00000000,
7.198440,0.2119,0.4226,0.9102,1.4511,-0.3326,0.2117,0.0585,-0.0513,-0.0941,936.2719,17.8612,-28.9875,-1.8575,30.0600,213.9607,-27.1937,3.6523,88.6081,0.00000000,0.00000000,0.00000000,
7.200484,0.2119,0.4226,0.9102,1.4511,-0.3326,0.2117,-0.0525,-0.0412,-0.0534,936.2719,17.8612,-28.9875,-1.8575,30.0600,213.9607,-27.1937,3.6523,88.6081,0.00000000,0.00000000,0.00000000,
7.216614,0.2119,0.4226,0.9102,1.4511,-0.3326,0.2117,-0.0525,-0.0412,-0.0534,936.3043,17.8612,-28.9875,-1.8575,30.0600,213.9607,-27.1937,3.6523,88.6081,0.00000000,0.00000000,0.00000000,
7.250379,0.2308,0.4063,0.7629,1.4511,-0.3326,0.2117,-0.0525,-0.0412,-0.0534,936.3043,17.8612,-28.9875,-1.8575,30.0600,213.9607,-27.1937,3.6523,88.6081,0.00000000,0.00000000,0.00000000,
7.253326,0.2308,0.4063,0.7629,1.5988,-0.5108,-1.2192,-0.0525,-0.0412,-0.0534,936.3043,17.8612,-28.9875,-1.8575,30.0600,213.9607,-27.1937,3.6523,88.6081,0.00000000,0.00000000,0.00000000,
7.254306,0.2308,0.4063,0.7629,1.5988,-0.5108,-1.2192,-0.0525,-0.0412,-0.0534,936.3043,17.8612,-28.9875,-1.8575,30.0600,214.3451,-27.3236,3.8751,88.6081,0.00000000,0.00000000,0.00000000,
7.255427,0.2308,0.4063,0.7629,1.5988,-0.5108,-1.2192,-0.0525,-0.0412,-0.0534,936.3105,17.8612,-28.9875,-1.8575,30.0600,214.3451,-27.3236,3.8751,88.6081,0.00000000,0.00000000,0.00000000,
7.257349,0.2308,0.4063,0.7629,1.5988,-0.5108,-1.2192,-0.0525,-0.0412,-0.0534,936.3105,18.5550,-29.0000,-1.5862,30.0600,214.3451,-27.3236,3.8751,88.6081,0.00000000,0.00000000,0.00000000,
7.267315,0.2308,0.4063,0.7629,1.5988,-0.5108,-1.2192,-0.0191,-0.1929,-0.0547,936.3105,18.5550,-29.0000,-1.5862,30.0600,214.3451,-27.3236,3.8751,88.6081,0.00000000,0.00000000,0.00000000,
7.316879,0.2308,0.4063,0.7629,1.3820,-0.3344,-0.1387,-0.0191,-0.1929,-0.0547,936.3105,18.5550,-29.0000,-1.5862,30.0600,214.3451,-27.3236,3.8751,88.6081,0.00000000,0.00000000,0.00000000,
7.319900,0.2284,0.4194,0.8739,1.3820,-0.3344,-0.1387,-0.0191,-0.1929,-0.0547,936.3105,18.5550,-29.0000,-1.5862,30.0600,214.3451,-27.3236,3.8751,88.6081,0.00000000,0.00000000,0.00000000,
7.320681,0.2284,0.4194,0.8739,1.3820,-0.3344,-0.1387,-0.0191,-0.1929,-0.0547,936.3105,18.5550,-29.0000,-1.5862,30.0600,215.1094,-27.0544,5.0079,88.6081,0.00000000,0.00000000,0.00000000,
7.334609,0.2284,0.4194,0.8739,1.3820,-0.3344,-0.1387,-0.0104,-0.2990,-0.0689,936.3105,18.5550,-29.0000,-1.5862,30.0600,215.1094,-27.0544,5.0079,88.6081,0.00000000,0.00000000,0.00000000,
7.336165,0.2284,0.4194,0.8739,1.3820,-0.3344,-0.1387,-0.0104,-0.2990,-0.0689,936.3906,18.5550,-29.0000,-1.5862,30.0600,215.1094,-27.0544,5.0079,88.6081,0.00000000,0.00000000,0.00000000,
7.336920,0.2284,0.4194,0.8739,1.3820,-0.3344,-0.1387,-0.0104,-0.2990,-0.0689,936.3906,18.4275,-29.3812,-2.0312,30.0600,215.1094,-27.0544,5.0079,88.6081,0.00000000,0.00000000,0.00000000,
7.383273,0.2619,0.4421,0.8510,1.3820,-0.3344,-0.1387,-0.0104,-0.2990,-0.0689,936.3906,18.4275,-29.3812,-2.0312,30.0600,215.1094,-27.0544,5.0079,88.6081,0.00000000,0.00000000,0.00000000,
7.385537,0.2619,0.4421,0.8510,1.6374,-0.1451,-0.3389,-0.0104,-0.2990,-0.0689,936.3906,18.4275,-29.3812,-2.0312,30.0600,215.1094,-27.0544,5.0079,88.6081,0.00000000,0.00000000,0.00000000,
7.386488,0.2619,0.4421,0.8510,1.6374,-0.1451,-0.3389,-0.0104,-0.2990,-0.0689,936.3906,18.4275,-29.3812,-2.0312,30.0600,215.6277,-27.2884,5.4355,88.6081,0.00000000,0.00000000,0.00000000,
7.396692,0.2619,0.4421,0.8510,1.6374,-0.1451,-0.3389,-0.0104,-0.2990,-0.0689,936.3906,18.3300,-29.4600,-2.3950,30.0600,215.6277,-27.2884,5.4355,88.6081,0.00000000,0.00000000,0.00000000,
7.401694,0.2619,0.4421,0.8510,1.6374,-0.1451,-0.3389,-0.0069,-0.1009,-0.0533,936.3906,18.3300,-29.4600,-2.3950,30.0600,215.6277,-27.2884,5.4355,88.6081,0.00000000,0.00000000,0.00000000,
7.416494,0.2619,0.4421,0.8510,1.6374,-0.1451,-0.3389,-0.0069,-0.1009,-0.0533,936.4047,18.3300,-29.4600,-2.3950,30.0600,215.6277,-27.2884,5.4355,88.4970,0.00000000,0.00000000,0.00000000,
7.451631,0.2416,0.4200,0.9052,1.6374,-0.1451,-0.3389,-0.0069,-0.1009,-0.0533,936.4047,18.3300,-29.4600,-2.3950,30.0600,215.6277,-27.2884,5.4355,88.4970,0.00000000,0.00000000,0.00000000,
7.455056,0.2416,0.4200,0.9052,1.4681,-0.3550,0.1853,-0.0069,-0.1009,-0.0533,936.4047,18.3300,-29.4600,-2.3950,30.0600,215.6277,-27.2884,5.4355,88.4970,0.00000000,0.00000000,0.00000000,
