
time,gFx,gFy,gFz,ax,ay,az,wx,wy,wz,p,Bx,By,Bz,I,Azimuth,Pitch,Roll,Gain,Latitude,Longitude,Speed (m/s),
0.065531,0.0000,0.0000,0.0000,0.0000,0.0000,0.0000,0.0000,0.0000,0.0000,0.0000,0.0000,0.0000,0.0000,337.6187,0.0000,0.0000,0.0000,-∞,0.00000000,0.00000000,0.00000000,
0.065683,0.0000,0.0000,0.0000,0.0000,0.0000,0.0000,0.0000,0.0000,0.0000,0.0000,0.0000,0.0000,0.0000,298.6288,0.0000,0.0000,0.0000,-∞,0.00000000,0.00000000,0.00000000,
0.074029,-0.1635,0.3027,0.9292,0.0000,0.0000,0.0000,0.0000,0.0000,0.0000,0.0000,0.0000,0.0000,0.0000,298.6288,0.0000,0.0000,0.0000,-∞,0.00000000,0.00000000,0.00000000,
0.078775,-0.1635,0.3027,0.9292,0.0000,0.0000,0.0000,0.3485,-0.3080,0.1507,0.0000,0.0000,0.0000,0.0000,298.6288,0.0000,0.0000,0.0000,-∞,0.00000000,0.00000000,0.00000000,
0.122685,-0.1635,0.3027,0.9292,0.0000,0.0000,0.0000,0.3485,-0.3080,0.1507,939.3958,0.0000,0.0000,0.0000,298.6288,0.0000,0.0000,0.0000,-∞,0.00000000,0.00000000,0.00000000,
0.125297,-0.1635,0.3027,0.9292,0.0000,0.0000,0.0000,0.3485,-0.3080,0.1507,939.3958,-1.5850,4.5400,-15.8550,298.6288,0.0000,0.0000,0.0000,-∞,0.00000000,0.00000000,0.00000000,
0.141461,-0.1651,0.3713,0.8875,0.0000,0.0000,0.0000,0.3485,-0.3080,0.1507,939.3958,-1.5850,4.5400,-15.8550,298.6288,0.0000,0.0000,0.0000,-∞,0.00000000,0.00000000,0.00000000,
0.146130,-0.1651,0.3713,0.8875,0.0000,0.0000,0.0000,0.3013,-0.1330,-0.0043,939.3958,-1.5850,4.5400,-15.8550,298.6288,0.0000,0.0000,0.0000,-∞,0.00000000,0.00000000,0.00000000,
0.195716,-0.1651,0.3713,0.8875,0.0000,0.0000,0.0000,0.3013,-0.1330,-0.0043,939.3958,-1.9487,4.9600,-15.6137,298.6288,0.0000,0.0000,0.0000,-∞,0.00000000,0.00000000,0.00000000,
0.202403,-0.1651,0.3713,0.8875,0.0000,0.0000,0.0000,0.3013,-0.1330,-0.0043,939.3888,-1.9487,4.9600,-15.6137,298.6288,0.0000,0.0000,0.0000,-∞,0.00000000,0.00000000,0.00000000,
0.208650,-0.1666,0.3529,0.9264,0.0000,0.0000,0.0000,0.3013,-0.1330,-0.0043,939.3888,-1.9487,4.9600,-15.6137,298.6288,0.0000,0.0000,0.0000,-∞,0.00000000,0.00000000,0.00000000,
0.213355,-0.1666,0.3529,0.9264,0.0000,0.0000,0.0000,0.2646,-0.0715,0.0480,939.3888,-1.9487,4.9600,-15.6137,298.6288,0.0000,0.0000,0.0000,-∞,0.00000000,0.00000000,0.00000000,
0.242612,-0.1666,0.3529,0.9264,0.0000,0.0000,0.0000,0.2646,-0.0715,0.0480,939.3524,-1.9487,4.9600,-15.6137,298.6288,0.0000,0.0000,0.0000,-∞,0.00000000,0.00000000,0.00000000,
0.263034,-0.1666,0.3529,0.9264,0.0000,0.0000,0.0000,0.2646,-0.0715,0.0480,939.3524,-1.9487,4.9600,-15.6137,269.7538,0.0000,0.0000,0.0000,-∞,0.00000000,0.00000000,0.00000000,
0.266186,-0.1666,0.3529,0.9264,0.0000,0.0000,0.0000,0.2646,-0.0715,0.0480,939.3524,-2.0938,4.0363,-15.5300,269.7538,0.0000,0.0000,0.0000,-∞,0.00000000,0.00000000,0.00000000,
0.276055,-0.1506,0.3938,0.8812,0.0000,0.0000,0.0000,0.2646,-0.0715,0.0480,939.3524,-2.0938,4.0363,-15.5300,269.7538,0.0000,0.0000,0.0000,-∞,0.00000000,0.00000000,0.00000000,
0.281325,-0.1506,0.3938,0.8812,0.0000,0.0000,0.0000,0.0968,-0.2268,-0.0202,939.3524,-2.0938,4.0363,-15.5300,269.7538,0.0000,0.0000,0.0000,-∞,0.00000000,0.00000000,0.00000000,
0.322833,-0.1506,0.3938,0.8812,0.0000,0.0000,0.0000,0.0968,-0.2268,-0.0202,939.3575,-2.0938,4.0363,-15.5300,269.7538,0.0000,0.0000,0.0000,-∞,0.00000000,0.00000000,0.00000000,
0.336839,-0.1506,0.3938,0.8812,0.0000,0.0000,0.0000,0.0968,-0.2268,-0.0202,939.3575,-1.8288,4.1000,-15.5250,269.7538,0.0000,0.0000,0.0000,-∞,0.00000000,0.00000000,0.00000000,
0.343232,-0.1529,0.3756,0.9251,0.0000,0.0000,0.0000,0.0968,-0.2268,-0.0202,939.3575,-1.8288,4.1000,-15.5250,269.7538,0.0000,0.0000,0.0000,-∞,0.00000000,0.00000000,0.00000000,
0.347867,-0.1529,0.3756,0.9251,0.0000,0.0000,0.0000,0.1393,-0.0617,-0.0107,939.3575,-1.8288,4.1000,-15.5250,269.7538,0.0000,0.0000,0.0000,-∞,0.00000000,0.00000000,0.00000000,
0.402725,-0.1529,0.3756,0.9251,0.0000,0.0000,0.0000,0.1393,-0.0617,-0.0107,939.3312,-1.8288,4.1000,-15.5250,269.7538,0.0000,0.0000,0.0000,-∞,0.00000000,0.00000000,0.00000000,
0.407896,-0.1529,0.3756,0.9251,0.0000,0.0000,0.0000,0.1393,-0.0617,-0.0107,939.3312,-2.0400,3.6875,-15.9325,269.7538,0.0000,0.0000,0.0000,-∞,0.00000000,0.00000000,0.00000000,
0.410932,-0.1297,0.3960,0.9226,0.0000,0.0000,0.0000,0.1393,-0.0617,-0.0107,939.3312,-2.0400,3.6875,-15.9325,269.7538,0.0000,0.0000,0.0000,-∞,0.00000000,0.00000000,0.00000000,
0.415722,-0.1297,0.3960,0.9226,0.0000,0.0000,0.0000,0.1180,-0.2304,-0.0336,939.3312,-2.0400,3.6875,-15.9325,269.7538,0.0000,0.0000,0.0000,-∞,0.00000000,0.00000000,0.00000000,
0.442333,-0.1297,0.3960,0.9226,0.0000,0.0000,0.0000,0.1180,-0.2304,-0.0336,939.3452,-2.0400,3.6875,-15.9325,269.7538,0.0000,0.0000,0.0000,-∞,0.00000000,0.00000000,0.00000000,
0.477152,-0.1297,0.3960,0.9226,0.0000,0.0000,0.0000,0.1180,-0.2304,-0.0336,939.3452,-2.0137,3.1287,-15.8512,269.7538,0.0000,0.0000,0.0000,-∞,0.00000000,0.00000000,0.00000000,
0.477840,-0.1290,0.4440,0.8750,0.0000,0.0000,0.0000,0.1180,-0.2304,-0.0336,939.3452,-2.0137,3.1287,-15.8512,269.7538,0.0000,0.0000,0.0000,-∞,0.00000000,0.00000000,0.00000000,
0.482671,-0.1290,0.4440,0.8750,0.0000,0.0000,0.0000,0.0973,-0.0255,-0.0838,939.3452,-2.0137,3.1287,-15.8512,269.7538,0.0000,0.0000,0.0000,-∞,0.00000000,0.00000000,0.00000000,
0.522611,-0.1290,0.4440,0.8750,0.0000,0.0000,0.0000,0.0973,-0.0255,-0.0838,939.3597,-2.0137,3.1287,-15.8512,269.7538,0.0000,0.0000,0.0000,-∞,0.00000000,0.00000000,0.00000000,
0.545399,-0.1316,0.3949,0.8996,0.0000,0.0000,0.0000,0.0973,-0.0255,-0.0838,939.3597,-2.0137,3.1287,-15.8512,269.7538,0.0000,0.0000,0.0000,77.0168,0.00000000,0.00000000,0.00000000,
0.546501,-0.1316,0.3949,0.8996,0.0000,0.0000,0.0000,0.0973,-0.0255,-0.0838,939.3597,-1.8075,3.4412,-16.0475,269.7538,0.0000,0.0000,0.0000,77.0168,0.00000000,0.00000000,0.00000000,
0.550000,-0.1316,0.3949,0.8996,0.0000,0.0000,0.0000,-0.3499,-0.4928,0.2880,939.3597,-1.8075,3.4412,-16.0475,269.7538,0.0000,0.0000,0.0000,77.0168,0.00000000,0.00000000,0.00000000,
0.550525,-0.1316,0.3949,0.8996,0.2476,0.0433,-0.0806,-0.3499,-0.4928,0.2880,939.3597,-1.8075,3.4412,-16.0475,269.7538,0.0000,0.0000,0.0000,77.0168,0.00000000,0.00000000,0.00000000,
0.550948,-0.1316,0.3949,0.8996,0.2476,0.0433,-0.0806,-0.3499,-0.4928,0.2880,939.3597,-1.8075,3.4412,-16.0475,269.7538,21.2985,-22.8291,-8.5742,77.0168,0.00000000,0.00000000,0.00000000,
0.602664,-0.1316,0.3949,0.8996,0.2476,0.0433,-0.0806,-0.3499,-0.4928,0.2880,939.3801,-1.8075,3.4412,-16.0475,269.7538,21.2985,-22.8291,-8.5742,77.0168,0.00000000,0.00000000,0.00000000,
0.612385,-0.0726,0.3817,0.9746,0.2476,0.0433,-0.0806,-0.3499,-0.4928,0.2880,939.3801,-1.8075,3.4412,-16.0475,269.7538,21.2985,-22.8291,-8.5742,77.0168,0.00000000,0.00000000,0.00000000,
0.617416,-0.0726,0.3817,0.9746,0.2476,0.0433,-0.0806,-0.3499,-0.4928,0.2880,939.3801,-2.1588,4.3688,-16.3125,269.7538,21.2985,-22.8291,-8.5742,77.0168,0.00000000,0.00000000,0.00000000,
0.618128,-0.0726,0.3817,0.9746,0.2476,0.0433,-0.0806,-0.1910,-0.1373,0.3236,939.3801,-2.1588,4.3688,-16.3125,269.7538,21.2985,-22.8291,-8.5742,77.0168,0.00000000,0.00000000,0.00000000,
0.618642,-0.0726,0.3817,0.9746,0.5493,0.1312,0.5683,-0.1910,-0.1373,0.3236,939.3801,-2.1588,4.3688,-16.3125,269.7538,21.2985,-22.8291,-8.5742,77.0168,0.00000000,0.00000000,0.00000000,
0.619109,-0.0726,0.3817,0.9746,0.5493,0.1312,0.5683,-0.1910,-0.1373,0.3236,939.3801,-2.1588,4.3688,-16.3125,269.7538,20.3389,-22.2272,-7.6110,77.0168,0.00000000,0.00000000,0.00000000,
0.642298,-0.0726,0.3817,0.9746,0.5493,0.1312,0.5683,-0.1910,-0.1373,0.3236,939.3467,-2.1588,4.3688,-16.3125,269.7538,20.3389,-22.2272,-7.6110,77.0168,0.00000000,0.00000000,0.00000000,
0.674818,-0.0726,0.3817,0.9746,0.5493,0.1312,0.5683,-0.1910,-0.1373,0.3236,939.3467,-2.1588,4.3688,-16.3125,317.9150,20.3389,-22.2272,-7.6110,77.0168,0.00000000,0.00000000,0.00000000,
0.678903,-0.0133,0.3344,0.8644,0.5493,0.1312,0.5683,-0.1910,-0.1373,0.3236,939.3467,-2.1588,4.3688,-16.3125,317.9150,20.3389,-22.2272,-7.6110,77.0168,0.00000000,0.00000000,0.00000000,
0.683752,-0.0133,0.3344,0.8644,0.5493,0.1312,0.5683,-0.4389,1.0517,1.0212,939.3467,-2.1588,4.3688,-16.3125,317.9150,20.3389,-22.2272,-7.6110,77.0168,0.00000000,0.00000000,0.00000000,
0.684430,-0.0133,0.3344,0.8644,1.5594,-0.3374,-0.6570,-0.4389,1.0517,1.0212,939.3467,-2.1588,4.3688,-16.3125,317.9150,20.3389,-22.2272,-7.6110,77.0168,0.00000000,0.00000000,0.00000000,
0.684999,-0.0133,0.3344,0.8644,1.5594,-0.3374,-0.6570,-0.4389,1.0517,1.0212,939.3467,-2.1588,4.3688,-16.3125,317.9150,15.1416,-21.2774,-9.9120,77.0168,0.00000000,0.00000000,0.00000000,
0.686922,-0.0133,0.3344,0.8644,1.5594,-0.3374,-0.6570,-0.4389,1.0517,1.0212,939.3467,-2.0838,4.8537,-16.4737,317.9150,15.1416,-21.2774,-9.9120,77.0168,0.00000000,0.00000000,0.00000000,
0.722775,-0.0133,0.3344,0.8644,1.5594,-0.3374,-0.6570,-0.4389,1.0517,1.0212,939.3101,-2.0838,4.8537,-16.4737,317.9150,15.1416,-21.2774,-9.9120,77.0168,0.00000000,0.00000000,0.00000000,
0.746989,-0.1245,0.3460,0.8935,1.5594,-0.3374,-0.6570,-0.4389,1.0517,1.0212,939.3101,-2.0838,4.8537,-16.4737,317.9150,15.1416,-21.2774,-9.9120,77.0168,0.00000000,0.00000000,0.00000000,
0.751111,-0.1245,0.3460,0.8935,1.5594,-0.3374,-0.6570,-0.6861,2.1450,0.8263,939.3101,-2.0838,4.8537,-16.4737,317.9150,15.1416,-21.2774,-9.9120,77.0168,0.00000000,0.00000000,0.00000000,
0.752171,-0.1245,0.3460,0.8935,1.4786,0.1961,0.0344,-0.6861,2.1450,0.8263,939.3101,-2.0838,4.8537,-16.4737,317.9150,15.1416,-21.2774,-9.9120,77.0168,0.00000000,0.00000000,0.00000000,
0.752650,-0.1245,0.3460,0.8935,1.4786,0.1961,0.0344,-0.6861,2.1450,0.8263,939.3101,-2.0838,4.8537,-16.4737,317.9150,9.0948,-19.9989,-16.5157,77.0168,0.00000000,0.00000000,0.00000000,
0.757178,-0.1245,0.3460,0.8935,1.4786,0.1961,0.0344,-0.6861,2.1450,0.8263,939.3101,-0.4737,5.7075,-17.3650,317.9150,9.0948,-19.9989,-16.5157,77.0168,0.00000000,0.00000000,0.00000000,
0.778764,-0.1245,0.3460,0.8935,1.4786,0.1961,0.0344,-0.6861,2.1450,0.8263,939.3101,-0.4737,5.7075,-17.3650,282.2812,9.0948,-19.9989,-16.5157,77.0168,0.00000000,0.00000000,0.00000000,
0.803059,-0.1245,0.3460,0.8935,1.4786,0.1961,0.0344,-0.6861,2.1450,0.8263,939.3461,-0.4737,5.7075,-17.3650,282.2812,9.0948,-19.9989,-16.5157,77.0168,0.00000000,0.00000000,0.00000000,
0.813889,-0.1998,0.2812,0.9549,1.4786,0.1961,0.0344,-0.6861,2.1450,0.8263,939.3461,-0.4737,5.7075,-17.3650,282.2812,9.0948,-19.9989,-16.5157,77.0168,0.00000000,0.00000000,0.00000000,
0.818276,-0.1998,0.2812,0.9549,1.4786,0.1961,0.0344,-0.7298,1.4034,0.6318,939.3461,-0.4737,5.7075,-17.3650,282.2812,9.0948,-19.9989,-16.5157,77.0168,0.00000000,0.00000000,0.00000000,
0.818983,-0.1998,0.2812,0.9549,1.4338,-0.2054,0.6651,-0.7298,1.4034,0.6318,939.3461,-0.4737,5.7075,-17.3650,282.2812,9.0948,-19.9989,-16.5157,77.0168,0.00000000,0.00000000,0.00000000,
0.819512,-0.1998,0.2812,0.9549,1.4338,-0.2054,0.6651,-0.7298,1.4034,0.6318,939.3461,-0.4737,5.7075,-17.3650,282.2812,4.7618,-18.6117,-20.8151,77.0168,0.00000000,0.00000000,0.00000000,
0.828380,-0.1998,0.2812,0.9549,1.4338,-0.2054,0.6651,-0.7298,1.4034,0.6318,939.3461,1.5912,7.3175,-17.1375,282.2812,4.7618,-18.6117,-20.8151,77.0168,0.00000000,0.00000000,0.00000000,
0.842669,-0.1998,0.2812,0.9549,1.4338,-0.2054,0.6651,-0.7298,1.4034,0.6318,939.3544,1.5912,7.3175,-17.1375,282.2812,4.7618,-18.6117,-20.8151,88.6609,0.00000000,0.00000000,0.00000000,
0.881584,-0.1998,0.2812,0.9549,1.4338,-0.2054,0.6651,-0.7298,1.4034,0.6318,939.3544,1.5912,7.3175,-17.1375,298.5762,4.7618,-18.6117,-20.8151,88.6609,0.00000000,0.00000000,0.00000000,
0.882274,-0.2940,0.2842,0.9507,1.4338,-0.2054,0.6651,-0.7298,1.4034,0.6318,939.3544,1.5912,7.3175,-17.1375,298.5762,4.7618,-18.6117,-20.8151,88.6609,0.00000000,0.00000000,0.00000000,
0.886398,-0.2940,0.2842,0.9507,1.4338,-0.2054,0.6651,-0.0576,0.7703,0.0681,939.3544,1.5912,7.3175,-17.1375,298.5762,4.7618,-18.6117,-20.8151,88.6609,0.00000000,0.00000000,0.00000000,
0.887174,-0.2940,0.2842,0.9507,0.9102,-0.0994,0.7972,-0.0576,0.7703,0.0681,939.3544,1.5912,7.3175,-17.1375,298.5762,4.7618,-18.6117,-20.8151,88.6609,0.00000000,0.00000000,0.00000000,
0.887720,-0.2940,0.2842,0.9507,0.9102,-0.0994,0.7972,-0.0576,0.7703,0.0681,939.3544,1.5912,7.3175,-17.1375,298.5762,3.4908,-18.8420,-23.5448,88.6609,0.00000000,0.00000000,0.00000000,
0.897762,-0.2940,0.2842,0.9507,0.9102,-0.0994,0.7972,-0.0576,0.7703,0.0681,939.3544,2.1225,8.2875,-16.8888,298.5762,3.4908,-18.8420,-23.5448,88.6609,0.00000000,0.00000000,0.00000000,
0.922649,-0.2940,0.2842,0.9507,0.9102,-0.0994,0.7972,-0.0576,0.7703,0.0681,939.3320,2.1225,8.2875,-16.8888,298.5762,3.4908,-18.8420,-23.5448,88.6609,0.00000000,0.00000000,0.00000000,
0.948218,-0.2920,0.2712,0.8681,0.9102,-0.0994,0.7972,-0.0576,0.7703,0.0681,939.3320,2.1225,8.2875,-16.8888,298.5762,3.4908,-18.8420,-23.5448,88.6609,0.00000000,0.00000000,0.00000000,
0.952542,-0.2920,0.2712,0.8681,0.9102,-0.0994,0.7972,1.1519,-1.4905,-0.5698,939.3320,2.1225,8.2875,-16.8888,298.5762,3.4908,-18.8420,-23.5448,88.6609,0.00000000,0.00000000,0.00000000,
0.953153,-0.2920,0.2712,0.8681,0.5054,-0.7877,-0.2072,1.1519,-1.4905,-0.5698,939.3320,2.1225,8.2875,-16.8888,298.5762,3.4908,-18.8420,-23.5448,88.6609,0.00000000,0.00000000,0.00000000,
0.953658,-0.2920,0.2712,0.8681,0.5054,-0.7877,-0.2072,1.1519,-1.4905,-0.5698,939.3320,2.1225,8.2875,-16.8888,298.5762,7.8815,-21.6650,-18.9384,88.6609,0.00000000,0.00000000,0.00000000,
0.967971,-0.2920,0.2712,0.8681,0.5054,-0.7877,-0.2072,1.1519,-1.4905,-0.5698,939.3320,1.3887,7.2562,-17.2712,298.5762,7.8815,-21.6650,-18.9384,88.6609,0.00000000,0.00000000,0.00000000,
0.982922,-0.2920,0.2712,0.8681,0.5054,-0.7877,-0.2072,1.1519,-1.4905,-0.5698,939.3320,1.3887,7.2562,-17.2712,251.7025,7.8815,-21.6650,-18.9384,88.6609,0.00000000,0.00000000,0.00000000,
1.003057,-0.2920,0.2712,0.8681,0.5054,-0.7877,-0.2072,1.1519,-1.4905,-0.5698,939.3807,1.3887,7.2562,-17.2712,251.7025,7.8815,-21.6650,-18.9384,88.6609,0.00000000,0.00000000,0.00000000,
1.015865,-0.0573,0.3074,0.8273,0.5054,-0.7877,-0.2072,1.1519,-1.4905,-0.5698,939.3807,1.3887,7.2562,-17.2712,251.7025,7.8815,-21.6650,-18.9384,88.6609,0.00000000,0.00000000,0.00000000,
1.020177,-0.0573,0.3074,0.8273,0.5054,-0.7877,-0.2072,1.0560,-2.1166,-1.0181,939.3807,1.3887,7.2562,-17.2712,251.7025,7.8815,-21.6650,-18.9384,88.6609,0.00000000,0.00000000,0.00000000,
1.020951,-0.0573,0.3074,0.8273,1.6651,-0.8299,-0.7482,1.0560,-2.1166,-1.0181,939.3807,1.3887,7.2562,-17.2712,251.7025,7.8815,-21.6650,-18.9384,88.6609,0.00000000,0.00000000,0.00000000,
1.021536,-0.0573,0.3074,0.8273,1.6651,-0.8299,-0.7482,1.0560,-2.1166,-1.0181,939.3807,1.3887,7.2562,-17.2712,251.7025,14.9083,-23.8441,-12.9519,88.6609,0.00000000,0.00000000,0.00000000,
1.038475,-0.0573,0.3074,0.8273,1.6651,-0.8299,-0.7482,1.0560,-2.1166,-1.0181,939.3807,-1.3525,6.8975,-16.5212,251.7025,14.9083,-23.8441,-12.9519,88.6609,0.00000000,0.00000000,0.00000000,
1.042534,-0.0573,0.3074,0.8273,1.6651,-0.8299,-0.7482,1.0560,-2.1166,-1.0181,939.3826,-1.3525,6.8975,-16.5212,251.7025,14.9083,-23.8441,-12.9519,88.6609,0.00000000,0.00000000,0.00000000,
1.083195,-0.1695,0.4733,0.8241,1.6651,-0.8299,-0.7482,1.0560,-2.1166,-1.0181,939.3826,-1.3525,6.8975,-16.5212,251.7025,14.9083,-23.8441,-12.9519,88.6609,0.00000000,0.00000000,0.00000000,
1.085354,-0.1695,0.4733,0.8241,1.6651,-0.8299,-0.7482,1.0560,-2.1166,-1.0181,939.3826,-1.3525,6.8975,-16.5212,212.6462,14.9083,-23.8441,-12.9519,88.6609,0.00000000,0.00000000,0.00000000,
1.087206,-0.1695,0.4733,0.8241,1.6651,-0.8299,-0.7482,0.0745,-0.8185,-0.7184,939.3826,-1.3525,6.8975,-16.5212,212.6462,14.9083,-23.8441,-12.9519,88.6609,0.00000000,0.00000000,0.00000000,
1.087889,-0.1695,0.4733,0.8241,0.1942,0.8600,-0.6541,0.0745,-0.8185,-0.7184,939.3826,-1.3525,6.8975,-16.5212,212.6462,14.9083,-23.8441,-12.9519,88.6609,0.00000000,0.00000000,0.00000000,
1.088337,-0.1695,0.4733,0.8241,0.1942,0.8600,-0.6541,0.0745,-0.8185,-0.7184,939.3826,-1.3525,6.8975,-16.5212,212.6462,18.7916,-23.3060,-11.1728,88.6609,0.00000000,0.00000000,0.00000000,
1.108048,-0.1695,0.4733,0.8241,0.1942,0.8600,-0.6541,0.0745,-0.8185,-0.7184,939.3826,-2.9588,6.8000,-16.0875,212.6462,18.7916,-23.3060,-11.1728,88.6609,0.00000000,0.00000000,0.00000000,
1.122382,-0.1695,0.4733,0.8241,0.1942,0.8600,-0.6541,0.0745,-0.8185,-0.7184,939.3743,-2.9588,6.8000,-16.0875,212.6462,18.7916,-23.3060,-11.1728,88.6609,0.00000000,0.00000000,0.00000000,
1.149806,-0.0363,0.4852,0.9766,0.1942,0.8600,-0.6541,0.0745,-0.8185,-0.7184,939.3743,-2.9588,6.8000,-16.0875,212.6462,18.7916,-23.3060,-11.1728,85.8964,0.00000000,0.00000000,0.00000000,
1.154238,-0.0363,0.4852,0.9766,0.1942,0.8600,-0.6541,0.0808,-1.4282,-0.7573,939.3743,-2.9588,6.8000,-16.0875,212.6462,18.7916,-23.3060,-11.1728,85.8964,0.00000000,0.00000000,0.00000000,
1.154966,-0.0363,0.4852,0.9766,0.7890,1.0540,0.6692,0.0808,-1.4282,-0.7573,939.3743,-2.9588,6.8000,-16.0875,212.6462,18.7916,-23.3060,-11.1728,85.8964,0.00000000,0.00000000,0.00000000,
1.155412,-0.0363,0.4852,0.9766,0.7890,1.0540,0.6692,0.0808,-1.4282,-0.7573,939.3743,-2.9588,6.8000,-16.0875,212.6462,23.6825,-22.8579,-7.2438,85.8964,0.00000000,0.00000000,0.00000000,
1.178605,-0.0363,0.4852,0.9766,0.7890,1.0540,0.6692,0.0808,-1.4282,-0.7573,939.3743,-4.4538,6.1712,-15.7312,212.6462,23.6825,-22.8579,-7.2438,85.8964,0.00000000,0.00000000,0.00000000,
1.189588,-0.0363,0.4852,0.9766,0.7890,1.0540,0.6692,0.0808,-1.4282,-0.7573,939.3743,-4.4538,6.1712,-15.7312,241.8700,23.6825,-22.8579,-7.2438,85.8964,0.00000000,0.00000000,0.00000000,
1.202919,-0.0363,0.4852,0.9766,0.7890,1.0540,0.6692,0.0808,-1.4282,-0.7573,939.3635,-4.4538,6.1712,-15.7312,241.8700,23.6825,-22.8579,-7.2438,85.8964,0.00000000,0.00000000,0.00000000,
1.217133,-0.1878,0.4943,1.0617,0.7890,1.0540,0.6692,0.0808,-1.4282,-0.7573,939.3635,-4.4538,6.1712,-15.7312,241.8700,23.6825,-22.8579,-7.2438,85.8964,0.00000000,0.00000000,0.00000000,
1.221399,-0.1878,0.4943,1.0617,0.7890,1.0540,0.6692,0.1808,-1.6276,-0.9305,939.3635,-4.4538,6.1712,-15.7312,241.8700,23.6825,-22.8579,-7.2438,85.8964,0.00000000,0.00000000,0.00000000,
1.222006,-0.1878,0.4943,1.0617,-1.3065,0.9809,1.5471,0.1808,-1.6276,-0.9305,939.3635,-4.4538,6.1712,-15.7312,241.8700,23.6825,-22.8579,-7.2438,85.8964,0.00000000,0.00000000,0.00000000,
1.222485,-0.1878,0.4943,1.0617,-1.3065,0.9809,1.5471,0.1808,-1.6276,-0.9305,939.3635,-4.4538,6.1712,-15.7312,241.8700,29.4445,-23.0461,-2.8658,85.8964,0.00000000,0.00000000,0.00000000,
1.242224,-0.1878,0.4943,1.0617,-1.3065,0.9809,1.5471,0.1808,-1.6276,-0.9305,939.3703,-4.4538,6.1712,-15.7312,241.8700,29.4445,-23.0461,-2.8658,85.8964,0.00000000,0.00000000,0.00000000,
1.248560,-0.1878,0.4943,1.0617,-1.3065,0.9809,1.5471,0.1808,-1.6276,-0.9305,939.3703,-5.7987,5.3937,-14.8900,241.8700,29.4445,-23.0461,-2.8658,85.8964,0.00000000,0.00000000,0.00000000,
1.284119,-0.1398,0.4826,1.1782,-1.3065,0.9809,1.5471,0.1808,-1.6276,-0.9305,939.3703,-5.7987,5.3937,-14.8900,241.8700,29.4445,-23.0461,-2.8658,85.8964,0.00000000,0.00000000,0.00000000,
1.289350,-0.1398,0.4826,1.1782,-1.3065,0.9809,1.5471,0.6538,-1.3715,-0.9566,939.3703,-5.7987,5.3937,-14.8900,241.8700,29.4445,-23.0461,-2.8658,85.8964,0.00000000,0.00000000,0.00000000,
1.290067,-0.1398,0.4826,1.1782,-1.4598,0.5110,2.6004,0.6538,-1.3715,-0.9566,939.3703,-5.7987,5.3937,-14.8900,241.8700,29.4445,-23.0461,-2.8658,85.8964,0.00000000,0.00000000,0.00000000,
1.290577,-0.1398,0.4826,1.1782,-1.4598,0.5110,2.6004,0.6538,-1.3715,-0.9566,939.3703,-5.7987,5.3937,-14.8900,241.8700,34.9497,-25.4567,0.4673,85.8964,0.00000000,0.00000000,0.00000000,
1.292397,-0.1398,0.4826,1.1782,-1.4598,0.5110,2.6004,0.6538,-1.3715,-0.9566,939.3703,-5.7987,5.3937,-14.8900,293.8838,34.9497,-25.4567,0.4673,85.8964,0.00000000,0.00000000,0.00000000,
1.318977,-0.1398,0.4826,1.1782,-1.4598,0.5110,2.6004,0.6538,-1.3715,-0.9566,939.3703,-6.6475,3.8650,-14.6675,293.8838,34.9497,-25.4567,0.4673,85.8964,0.00000000,0.00000000,0.00000000,
1.322532,-0.1398,0.4826,1.1782,-1.4598,0.5110,2.6004,0.6538,-1.3715,-0.9566,939.3246,-6.6475,3.8650,-14.6675,293.8838,34.9497,-25.4567,0.4673,85.8964,0.00000000,0.00000000,0.00000000,
1.352352,-0.0483,0.5322,0.9289,-1.4598,0.5110,2.6004,0.6538,-1.3715,-0.9566,939.3246,-6.6475,3.8650,-14.6675,293.8838,34.9497,-25.4567,0.4673,85.8964,0.00000000,0.00000000,0.00000000,
1.356931,-0.0483,0.5322,0.9289,-1.4598,0.5110,2.6004,0.7639,-0.6063,-0.7397,939.3246,-6.6475,3.8650,-14.6675,293.8838,34.9497,-25.4567,0.4673,85.8964,0.00000000,0.00000000,0.00000000,
1.358548,-0.0483,0.5322,0.9289,-0.6604,0.5502,0.3220,0.7639,-0.6063,-0.7397,939.3246,-6.6475,3.8650,-14.6675,293.8838,34.9497,-25.4567,0.4673,85.8964,0.00000000,0.00000000,0.00000000,
1.359715,-0.0483,0.5322,0.9289,-0.6604,0.5502,0.3220,0.7639,-0.6063,-0.7397,939.3246,-6.6475,3.8650,-14.6675,293.8838,38.5406,-28.4612,1.2527,85.8964,0.00000000,0.00000000,0.00000000,
1.390174,-0.0483,0.5322,0.9289,-0.6604,0.5502,0.3220,0.7639,-0.6063,-0.7397,939.3246,-7.1800,1.9575,-13.9075,293.8838,38.5406,-28.4612,1.2527,85.8964,0.00000000,0.00000000,0.00000000,
1.394584,-0.0483,0.5322,0.9289,-0.6604,0.5502,0.3220,0.7639,-0.6063,-0.7397,939.3246,-7.1800,1.9575,-13.9075,267.3962,38.5406,-28.4612,1.2527,85.8964,0.00000000,0.00000000,0.00000000,
1.404101,-0.0483,0.5322,0.9289,-0.6604,0.5502,0.3220,0.7639,-0.6063,-0.7397,939.3284,-7.1800,1.9575,-13.9075,267.3962,38.5406,-28.4612,1.2527,85.8964,0.00000000,0.00000000,0.00000000,
1.419491,-0.0588,0.5206,0.8311,-0.6604,0.5502,0.3220,0.7639,-0.6063,-0.7397,939.3284,-7.1800,1.9575,-13.9075,267.3962,38.5406,-28.4612,1.2527,85.8964,0.00000000,0.00000000,0.00000000,
1.424029,-0.0588,0.5206,0.8311,-0.6604,0.5502,0.3220,0.5928,-0.1032,-0.4823,939.3284,-7.1800,1.9575,-13.9075,267.3962,38.5406,-28.4612,1.2527,85.8964,0.00000000,0.00000000,0.00000000,
1.425144,-0.0588,0.5206,0.8311,-0.7003,0.0707,-0.3026,0.5928,-0.1032,-0.4823,939.3284,-7.1800,1.9575,-13.9075,267.3962,38.5406,-28.4612,1.2527,85.8964,0.00000000,0.00000000,0.00000000,
1.425972,-0.0588,0.5206,0.8311,-0.7003,0.0707,-0.3026,0.5928,-0.1032,-0.4823,939.3284,-7.1800,1.9575,-13.9075,267.3962,40.3549,-30.7746,0.6863,85.8964,0.00000000,0.00000000,0.00000000,
1.443142,-0.0588,0.5206,0.8311,-0.7003,0.0707,-0.3026,0.5928,-0.1032,-0.4823,939.3660,-7.1800,1.9575,-13.9075,267.3962,40.3549,-30.7746,0.6863,85.7668,0.00000000,0.00000000,0.00000000,
1.459370,-0.0588,0.5206,0.8311,-0.7003,0.0707,-0.3026,0.5928,-0.1032,-0.4823,939.3660,-7.1462,0.7100,-13.3663,267.3962,40.3549,-30.7746,0.6863,85.7668,0.00000000,0.00000000,0.00000000,
1.486458,-0.0093,0.5429,0.7230,-0.7003,0.0707,-0.3026,0.5928,-0.1032,-0.4823,939.3660,-7.1462,0.7100,-13.3663,267.3962,40.3549,-30.7746,0.6863,85.7668,0.00000000,0.00000000,0.00000000,
1.491629,-0.0093,0.5429,0.7230,-0.7003,0.0707,-0.3026,0.4755,-0.0283,-0.1842,939.3660,-7.1462,0.7100,-13.3663,267.3962,40.3549,-30.7746,0.6863,85.7668,0.00000000,0.00000000,0.00000000,
1.492951,-0.0093,0.5429,0.7230,-0.1556,0.0330,-1.2257,0.4755,-0.0283,-0.1842,939.3660,-7.1462,0.7100,-13.3663,267.3962,40.3549,-30.7746,0.6863,85.7668,0.00000000,0.00000000,0.00000000,
1.493680,-0.0093,0.5429,0.7230,-0.1556,0.0330,-1.2257,0.4755,-0.0283,-0.1842,939.3660,-7.1462,0.7100,-13.3663,267.3962,41.0121,-32.6155,0.4094,85.7668,0.00000000,0.00000000,0.00000000,
1.497535,-0.0093,0.5429,0.7230,-0.1556,0.0330,-1.2257,0.4755,-0.0283,-0.1842,939.3660,-7.1462,0.7100,-13.3663,219.4225,41.0121,-32.6155,0.4094,85.7668,0.00000000,0.00000000,0.00000000,
1.522754,-0.0093,0.5429,0.7230,-0.1556,0.0330,-1.2257,0.4755,-0.0283,-0.1842,939.3391,-7.1462,0.7100,-13.3663,219.4225,41.0121,-32.6155,0.4094,85.7668,0.00000000,0.00000000,0.00000000,
1.529389,-0.0093,0.5429,0.7230,-0.1556,0.0330,-1.2257,0.4755,-0.0283,-0.1842,939.3391,-7.1350,-0.4050,-13.3150,219.4225,41.0121,-32.6155,0.4094,85.7668,0.00000000,0.00000000,0.00000000,
1.553154,-0.0018,0.5566,0.7255,-0.1556,0.0330,-1.2257,0.4755,-0.0283,-0.1842,939.3391,-7.1350,-0.4050,-13.3150,219.4225,41.0121,-32.6155,0.4094,85.7668,0.00000000,0.00000000,0.00000000,
1.557925,-0.0018,0.5566,0.7255,-0.1556,0.0330,-1.2257,0.0815,0.3912,0.0649,939.3391,-7.1350,-0.4050,-13.3150,219.4225,41.0121,-32.6155,0.4094,85.7668,0.00000000,0.00000000,0.00000000,
1.559051,-0.0018,0.5566,0.7255,0.0895,0.1248,-1.0839,0.0815,0.3912,0.0649,939.3391,-7.1350,-0.4050,-13.3150,219.4225,41.0121,-32.6155,0.4094,85.7668,0.00000000,0.00000000,0.00000000,
1.559794,-0.0018,0.5566,0.7255,0.0895,0.1248,-1.0839,0.0815,0.3912,0.0649,939.3391,-7.1350,-0.4050,-13.3150,219.4225,39.9859,-32.9342,-0.7211,85.7668,0.00000000,0.00000000,0.00000000,
1.601248,-0.0018,0.5566,0.7255,0.0895,0.1248,-1.0839,0.0815,0.3912,0.0649,939.3391,-6.7487,-0.6162,-13.2587,219.4225,39.9859,-32.9342,-0.7211,85.7668,0.00000000,0.00000000,0.00000000,
1.602793,-0.0018,0.5566,0.7255,0.0895,0.1248,-1.0839,0.0815,0.3912,0.0649,939.3391,-6.7487,-0.6162,-13.2587,185.1662,39.9859,-32.9342,-0.7211,85.7668,0.00000000,0.00000000,0.00000000,
1.603506,-0.0018,0.5566,0.7255,0.0895,0.1248,-1.0839,0.0815,0.3912,0.0649,939.3442,-6.7487,-0.6162,-13.2587,185.1662,39.9859,-32.9342,-0.7211,85.7668,0.00000000,0.00000000,0.00000000,
1.620061,-0.0241,0.5597,0.7608,0.0895,0.1248,-1.0839,0.0815,0.3912,0.0649,939.3442,-6.7487,-0.6162,-13.2587,185.1662,39.9859,-32.9342,-0.7211,85.7668,0.00000000,0.00000000,0.00000000,
1.625406,-0.0241,0.5597,0.7608,0.0895,0.1248,-1.0839,0.0629,0.2078,0.0702,939.3442,-6.7487,-0.6162,-13.2587,185.1662,39.9859,-32.9342,-0.7211,85.7668,0.00000000,0.00000000,0.00000000,
1.626758,-0.0241,0.5597,0.7608,-0.0544,0.1022,-0.7178,0.0629,0.2078,0.0702,939.3442,-6.7487,-0.6162,-13.2587,185.1662,39.9859,-32.9342,-0.7211,85.7668,0.00000000,0.00000000,0.00000000,
1.627482,-0.0241,0.5597,0.7608,-0.0544,0.1022,-0.7178,0.0629,0.2078,0.0702,939.3442,-6.7487,-0.6162,-13.2587,185.1662,39.3225,-33.1902,-1.2443,85.7668,0.00000000,0.00000000,0.00000000,
1.643213,-0.0241,0.5597,0.7608,-0.0544,0.1022,-0.7178,0.0629,0.2078,0.0702,939.3282,-6.7487,-0.6162,-13.2587,185.1662,39.3225,-33.1902,-1.2443,85.7668,0.00000000,0.00000000,0.00000000,
1.670030,-0.0241,0.5597,0.7608,-0.0544,0.1022,-0.7178,0.0629,0.2078,0.0702,939.3282,-6.8162,-1.0475,-13.6500,185.1662,39.3225,-33.1902,-1.2443,85.7668,0.00000000,0.00000000,0.00000000,
1.692431,0.0133,0.5981,0.7567,-0.0544,0.1022,-0.7178,0.0629,0.2078,0.0702,939.3282,-6.8162,-1.0475,-13.6500,185.1662,39.3225,-33.1902,-1.2443,85.7668,0.00000000,0.00000000,0.00000000,
1.694720,0.0133,0.5981,0.7567,-0.0544,0.1022,-0.7178,0.1179,0.0706,0.0505,939.3282,-6.8162,-1.0475,-13.6500,185.1662,39.3225,-33.1902,-1.2443,85.7668,0.00000000,0.00000000,0.00000000,
1.695537,0.0133,0.5981,0.7567,0.3549,0.4569,-0.7830,0.1179,0.0706,0.0505,939.3282,-6.8162,-1.0475,-13.6500,185.1662,39.3225,-33.1902,-1.2443,85.7668,0.00000000,0.00000000,0.00000000,
1.698029,0.0133,0.5981,0.7567,0.3549,0.4569,-0.7830,0.1179,0.0706,0.0505,939.3282,-6.8162,-1.0475,-13.6500,185.1662,39.0106,-33.6535,-1.3640,85.7668,0.00000000,0.00000000,0.00000000,
1.702902,0.0133,0.5981,0.7567,0.3549,0.4569,-0.7830,0.1179,0.0706,0.0505,939.3282,-6.8162,-1.0475,-13.6500,167.4575,39.0106,-33.6535,-1.3640,85.7668,0.00000000,0.00000000,0.00000000,
1.722662,0.0133,0.5981,0.7567,0.3549,0.4569,-0.7830,0.1179,0.0706,0.0505,939.3401,-6.8162,-1.0475,-13.6500,167.4575,39.0106,-33.6535,-1.3640,85.7668,0.00000000,0.00000000,0.00000000,
1.740643,0.0133,0.5981,0.7567,0.3549,0.4569,-0.7830,0.1179,0.0706,0.0505,939.3401,-6.7975,-0.6587,-13.3200,167.4575,39.0106,-33.6535,-1.3640,85.7668,0.00000000,0.00000000,0.00000000,
1.754546,0.0096,0.6172,0.7419,0.3549,0.4569,-0.7830,0.1179,0.0706,0.0505,939.3401,-6.7975,-0.6587,-13.3200,167.4575,39.0106,-33.6535,-1.3640,84.1088,0.00000000,0.00000000,0.00000000,
1.759868,0.0096,0.6172,0.7419,0.3549,0.4569,-0.7830,0.0122,0.0027,0.0244,939.3401,-6.7975,-0.6587,-13.3200,167.4575,39.0106,-33.6535,-1.3640,84.1088,0.00000000,0.00000000,0.00000000,
1.760785,0.0096,0.6172,0.7419,0.3680,0.6053,-0.8560,0.0122,0.0027,0.0244,939.3401,-6.7975,-0.6587,-13.3200,167.4575,39.0106,-33.6535,-1.3640,84.1088,0.00000000,0.00000000,0.00000000,
1.761569,0.0096,0.6172,0.7419,0.3680,0.6053,-0.8560,0.0122,0.0027,0.0244,939.3401,-6.7975,-0.6587,-13.3200,167.4575,38.9264,-33.7054,-1.3195,84.1088,0.00000000,0.00000000,0.00000000,
1.803267,0.0096,0.6172,0.7419,0.3680,0.6053,-0.8560,0.0122,0.0027,0.0244,939.3439,-6.7975,-0.6587,-13.3200,167.4575,38.9264,-33.7054,-1.3195,84.1088,0.00000000,0.00000000,0.00000000,
1.809886,0.0096,0.6172,0.7419,0.3680,0.6053,-0.8560,0.0122,0.0027,0.0244,939.3439,-6.7112,-0.6887,-13.4700,167.4575,38.9264,-33.7054,-1.3195,84.1088,0.00000000,0.00000000,0.00000000,
1.821690,0.0408,0.6268,0.7501,0.3680,0.6053,-0.8560,0.0122,0.0027,0.0244,939.3439,-6.7112,-0.6887,-13.4700,167.4575,38.9264,-33.7054,-1.3195,84.1088,0.00000000,0.00000000,0.00000000,
1.826391,0.0408,0.6268,0.7501,0.3680,0.6053,-0.8560,0.0018,-0.2004,-0.1686,939.3439,-6.7112,-0.6887,-13.4700,167.4575,38.9264,-33.7054,-1.3195,84.1088,0.00000000,0.00000000,0.00000000,
1.827536,0.0408,0.6268,0.7501,0.5266,0.6753,-0.8093,0.0018,-0.2004,-0.1686,939.3439,-6.7112,-0.6887,-13.4700,167.4575,38.9264,-33.7054,-1.3195,84.1088,0.00000000,0.00000000,0.00000000,
1.828409,0.0408,0.6268,0.7501,0.5266,0.6753,-0.8093,0.0018,-0.2004,-0.1686,939.3439,-6.7112,-0.6887,-13.4700,167.4575,39.8945,-33.6950,-1.0366,84.1088,0.00000000,0.00000000,0.00000000,
1.842371,0.0408,0.6268,0.7501,0.5266,0.6753,-0.8093,0.0018,-0.2004,-0.1686,939.3389,-6.7112,-0.6887,-13.4700,167.4575,39.8945,-33.6950,-1.0366,84.1088,0.00000000,0.00000000,0.00000000,
1.881329,0.0408,0.6268,0.7501,0.5266,0.6753,-0.8093,0.0018,-0.2004,-0.1686,939.3389,-6.2487,-0.6212,-13.4600,167.4575,39.8945,-33.6950,-1.0366,84.1088,0.00000000,0.00000000,0.00000000,
1.889397,0.1146,0.6158,0.7540,0.5266,0.6753,-0.8093,0.0018,-0.2004,-0.1686,939.3389,-6.2487,-0.6212,-13.4600,167.4575,39.8945,-33.6950,-1.0366,84.1088,0.00000000,0.00000000,0.00000000,
1.894227,0.1146,0.6158,0.7540,0.5266,0.6753,-0.8093,0.0386,-0.4410,-0.2524,939.3389,-6.2487,-0.6212,-13.4600,167.4575,39.8945,-33.6950,-1.0366,84.1088,0.00000000,0.00000000,0.00000000,
1.895617,0.1146,0.6158,0.7540,1.1791,0.5564,-0.7544,0.0386,-0.4410,-0.2524,939.3389,-6.2487,-0.6212,-13.4600,167.4575,39.8945,-33.6950,-1.0366,84.1088,0.00000000,0.00000000,0.00000000,
1.896304,0.1146,0.6158,0.7540,1.1791,0.5564,-0.7544,0.0386,-0.4410,-0.2524,939.3389,-6.2487,-0.6212,-13.4600,167.4575,41.6458,-33.8297,-0.1604,84.1088,0.00000000,0.00000000,0.00000000,
1.923312,0.1146,0.6158,0.7540,1.1791,0.5564,-0.7544,0.0386,-0.4410,-0.2524,939.3303,-6.2487,-0.6212,-13.4600,167.4575,41.6458,-33.8297,-0.1604,84.1088,0.00000000,0.00000000,0.00000000,
1.951328,0.1146,0.6158,0.7540,1.1791,0.5564,-0.7544,0.0386,-0.4410,-0.2524,939.3303,-7.2050,-1.0475,-13.2188,167.4575,41.6458,-33.8297,-0.1604,84.1088,0.00000000,0.00000000,0.00000000,
1.956213,0.1723,0.6496,0.7278,1.1791,0.5564,-0.7544,0.0386,-0.4410,-0.2524,939.3303,-7.2050,-1.0475,-13.2188,167.4575,41.6458,-33.8297,-0.1604,84.1088,0.00000000,0.00000000,0.00000000,
1.962457,0.1723,0.6496,0.7278,1.1791,0.5564,-0.7544,0.3709,-1.0800,-0.1903,939.3303,-7.2050,-1.0475,-13.2188,167.4575,41.6458,-33.8297,-0.1604,84.1088,0.00000000,0.00000000,0.00000000,
1.963835,0.1723,0.6496,0.7278,1.3065,0.7028,-0.8752,0.3709,-1.0800,-0.1903,939.3303,-7.2050,-1.0475,-13.2188,167.4575,41.6458,-33.8297,-0.1604,84.1088,0.00000000,0.00000000,0.00000000,
1.965427,0.1723,0.6496,0.7278,1.3065,0.7028,-0.8752,0.3709,-1.0800,-0.1903,939.3303,-7.2050,-1.0475,-13.2188,167.4575,44.6070,-35.3130,2.8648,84.1088,0.00000000,0.00000000,0.00000000,
2.003260,0.1723,0.6496,0.7278,1.3065,0.7028,-0.8752,0.3709,-1.0800,-0.1903,939.3331,-7.2050,-1.0475,-13.2188,167.4575,44.6070,-35.3130,2.8648,84.1088,0.00000000,0.00000000,0.00000000,
2.012151,0.1723,0.6496,0.7278,1.3065,0.7028,-0.8752,0.3709,-1.0800,-0.1903,939.3331,-7.2050,-1.0475,-13.2188,219.0163,44.6070,-35.3130,2.8648,84.1088,0.00000000,0.00000000,0.00000000,
2.022431,0.1723,0.6496,0.7278,1.3065,0.7028,-0.8752,0.3709,-1.0800,-0.1903,939.3331,-8.3587,-1.7787,-11.6650,219.0163,44.6070,-35.3130,2.8648,84.1088,0.00000000,0.00000000,0.00000000,
2.023626,0.4301,0.6950,0.6712,1.3065,0.7028,-0.8752,0.3709,-1.0800,-0.1903,939.3331,-8.3587,-1.7787,-11.6650,219.0163,44.6070,-35.3130,2.8648,84.1088,0.00000000,0.00000000,0.00000000,
2.029021,0.4301,0.6950,0.6712,1.3065,0.7028,-0.8752,0.6719,-3.3319,-0.1130,939.3331,-8.3587,-1.7787,-11.6650,219.0163,44.6070,-35.3130,2.8648,84.1088,0.00000000,0.00000000,0.00000000,
2.030065,0.4301,0.6950,0.6712,2.1974,0.8093,-1.0079,0.6719,-3.3319,-0.1130,939.3331,-8.3587,-1.7787,-11.6650,219.0163,44.6070,-35.3130,2.8648,84.1088,0.00000000,0.00000000,0.00000000,
2.030932,0.4301,0.6950,0.6712,2.1974,0.8093,-1.0079,0.6719,-3.3319,-0.1130,939.3331,-8.3587,-1.7787,-11.6650,219.0163,52.8096,-39.1157,12.7980,84.1088,0.00000000,0.00000000,0.00000000,
2.042869,0.4301,0.6950,0.6712,2.1974,0.8093,-1.0079,0.6719,-3.3319,-0.1130,939.2904,-8.3587,-1.7787,-11.6650,219.0163,52.8096,-39.1157,12.7980,84.1088,0.00000000,0.00000000,0.00000000,
2.092581,0.5489,0.5798,0.3936,2.1974,0.8093,-1.0079,0.6719,-3.3319,-0.1130,939.2904,-8.3587,-1.7787,-11.6650,219.0163,52.8096,-39.1157,12.7980,85.0332,0.00000000,0.00000000,0.00000000,
2.094185,0.5489,0.5798,0.3936,2.1974,0.8093,-1.0079,0.6719,-3.3319,-0.1130,939.2904,-10.3337,-2.2775,-8.9925,219.0163,52.8096,-39.1157,12.7980,85.0332,0.00000000,0.00000000,0.00000000,
2.095061,0.5489,0.5798,0.3936,2.1974,0.8093,-1.0079,-0.5232,-4.5687,-1.4292,939.2904,-10.3337,-2.2775,-8.9925,219.0163,52.8096,-39.1157,12.7980,85.0332,0.00000000,0.00000000,0.00000000,
2.095799,0.5489,0.5798,0.3936,1.6479,-0.6645,-2.8299,-0.5232,-4.5687,-1.4292,939.2904,-10.3337,-2.2775,-8.9925,219.0163,52.8096,-39.1157,12.7980,85.0332,0.00000000,0.00000000,0.00000000,
2.096549,0.5489,0.5798,0.3936,1.6479,-0.6645,-2.8299,-0.5232,-4.5687,-1.4292,939.2904,-10.3337,-2.2775,-8.9925,219.0163,69.3340,-42.2638,22.4504,85.0332,0.00000000,0.00000000,0.00000000,
2.113904,0.5489,0.5798,0.3936,1.6479,-0.6645,-2.8299,-0.5232,-4.5687,-1.4292,939.2904,-10.3337,-2.2775,-8.9925,399.2637,69.3340,-42.2638,22.4504,85.0332,0.00000000,0.00000000,0.00000000,
2.122535,0.5489,0.5798,0.3936,1.6479,-0.6645,-2.8299,-0.5232,-4.5687,-1.4292,939.3372,-10.3337,-2.2775,-8.9925,399.2637,69.3340,-42.2638,22.4504,85.0332,0.00000000,0.00000000,0.00000000,
2.158630,0.5056,0.2365,0.5450,1.6479,-0.6645,-2.8299,-0.5232,-4.5687,-1.4292,939.3372,-10.3337,-2.2775,-8.9925,399.2637,69.3340,-42.2638,22.4504,85.0332,0.00000000,0.00000000,0.00000000,
2.160621,0.5056,0.2365,0.5450,1.6479,-0.6645,-2.8299,-0.5232,-4.5687,-1.4292,939.3372,-11.0462,-4.0825,-6.7175,399.2637,69.3340,-42.2638,22.4504,85.0332,0.00000000,0.00000000,0.00000000,
2.162914,0.5056,0.2365,0.5450,1.6479,-0.6645,-2.8299,-1.8874,-4.7784,-3.0122,939.3372,-11.0462,-4.0825,-6.7175,399.2637,69.3340,-42.2638,22.4504,85.0332,0.00000000,0.00000000,0.00000000,
2.163796,0.5056,0.2365,0.5450,0.2378,-3.8707,-0.6455,-1.8874,-4.7784,-3.0122,939.3372,-11.0462,-4.0825,-6.7175,399.2637,69.3340,-42.2638,22.4504,85.0332,0.00000000,0.00000000,0.00000000,
2.164650,0.5056,0.2365,0.5450,0.2378,-3.8707,-0.6455,-1.8874,-4.7784,-3.0122,939.3372,-11.0462,-4.0825,-6.7175,399.2637,92.7881,-45.3655,27.8120,85.0332,0.00000000,0.00000000,0.00000000,
2.202888,0.5056,0.2365,0.5450,0.2378,-3.8707,-0.6455,-1.8874,-4.7784,-3.0122,939.3575,-11.0462,-4.0825,-6.7175,399.2637,92.7881,-45.3655,27.8120,85.0332,0.00000000,0.00000000,0.00000000,
2.215874,0.5056,0.2365,0.5450,0.2378,-3.8707,-0.6455,-1.8874,-4.7784,-3.0122,939.3575,-11.0462,-4.0825,-6.7175,776.5037,92.7881,-45.3655,27.8120,85.0332,0.00000000,0.00000000,0.00000000,
2.224859,0.1082,0.2794,0.5633,0.2378,-3.8707,-0.6455,-1.8874,-4.7784,-3.0122,939.3575,-11.0462,-4.0825,-6.7175,776.5037,92.7881,-45.3655,27.8120,85.0332,0.00000000,0.00000000,0.00000000,
2.229935,0.1082,0.2794,0.5633,0.2378,-3.8707,-0.6455,-0.7877,-3.7451,-3.5403,939.3575,-11.0462,-4.0825,-6.7175,776.5037,92.7881,-45.3655,27.8120,85.0332,0.00000000,0.00000000,0.00000000,
2.231084,0.1082,0.2794,0.5633,0.2378,-3.8707,-0.6455,-0.7877,-3.7451,-3.5403,939.3575,-9.9400,-6.3438,-5.5237,776.5037,92.7881,-45.3655,27.8120,85.0332,0.00000000,0.00000000,0.00000000,
2.231929,0.1082,0.2794,0.5633,-3.4266,-4.2264,0.1218,-0.7877,-3.7451,-3.5403,939.3575,-9.9400,-6.3438,-5.5237,776.5037,92.7881,-45.3655,27.8120,85.0332,0.00000000,0.00000000,0.00000000,
2.232693,0.1082,0.2794,0.5633,-3.4266,-4.2264,0.1218,-0.7877,-3.7451,-3.5403,939.3575,-9.9400,-6.3438,-5.5237,776.5037,115.1364,-52.5615,27.1378,85.0332,0.00000000,0.00000000,0.00000000,
2.243518,0.1082,0.2794,0.5633,-3.4266,-4.2264,0.1218,-0.7877,-3.7451,-3.5403,939.3548,-9.9400,-6.3438,-5.5237,776.5037,115.1364,-52.5615,27.1378,85.0332,0.00000000,0.00000000,0.00000000,
2.293431,0.3512,0.5251,0.6547,-3.4266,-4.2264,0.1218,-0.7877,-3.7451,-3.5403,939.3548,-9.9400,-6.3438,-5.5237,776.5037,115.1364,-52.5615,27.1378,85.0332,0.00000000,0.00000000,0.00000000,
2.296980,0.3512,0.5251,0.6547,-3.4266,-4.2264,0.1218,1.2397,-2.0456,-2.1054,939.3548,-9.9400,-6.3438,-5.5237,776.5037,115.1364,-52.5615,27.1378,85.0332,0.00000000,0.00000000,0.00000000,
2.298194,0.3512,0.5251,0.6547,-0.7601,-2.4293,2.5091,1.2397,-2.0456,-2.1054,939.3548,-9.9400,-6.3438,-5.5237,776.5037,115.1364,-52.5615,27.1378,85.0332,0.00000000,0.00000000,0.00000000,
2.299128,0.3512,0.5251,0.6547,-0.7601,-2.4293,2.5091,1.2397,-2.0456,-2.1054,939.3548,-9.9400,-6.3438,-5.5237,776.5037,127.4342,-62.7327,24.7593,85.0332,0.00000000,0.00000000,0.00000000,
2.301538,0.3512,0.5251,0.6547,-0.7601,-2.4293,2.5091,1.2397,-2.0456,-2.1054,939.3548,-9.5588,-9.3350,-3.6237,776.5037,127.4342,-62.7327,24.7593,85.0332,0.00000000,0.00000000,0.00000000,
2.322704,0.3512,0.5251,0.6547,-0.7601,-2.4293,2.5091,1.2397,-2.0456,-2.1054,939.3539,-9.5588,-9.3350,-3.6237,776.5037,127.4342,-62.7327,24.7593,85.0332,0.00000000,0.00000000,0.00000000,
2.360194,0.4938,0.8659,0.3215,-0.7601,-2.4293,2.5091,1.2397,-2.0456,-2.1054,939.3539,-9.5588,-9.3350,-3.6237,776.5037,127.4342,-62.7327,24.7593,84.6582,0.00000000,0.00000000,0.00000000,
2.364588,0.4938,0.8659,0.3215,-0.7601,-2.4293,2.5091,3.4444,-0.7484,0.0073,939.3539,-9.5588,-9.3350,-3.6237,776.5037,127.4342,-62.7327,24.7593,84.6582,0.00000000,0.00000000,0.00000000,
2.366484,0.4938,0.8659,0.3215,0.9532,-0.0691,0.6859,3.4444,-0.7484,0.0073,939.3539,-9.5588,-9.3350,-3.6237,776.5037,127.4342,-62.7327,24.7593,84.6582,0.00000000,0.00000000,0.00000000,
2.367245,0.4938,0.8659,0.3215,0.9532,-0.0691,0.6859,3.4444,-0.7484,0.0073,939.3539,-9.5588,-9.3350,-3.6237,776.5037,130.4632,-77.2780,25.8546,84.6582,0.00000000,0.00000000,0.00000000,
2.372138,0.4938,0.8659,0.3215,0.9532,-0.0691,0.6859,3.4444,-0.7484,0.0073,939.3539,-11.6087,-11.4563,-0.4237,776.5037,130.4632,-77.2780,25.8546,84.6582,0.00000000,0.00000000,0.00000000,
2.403162,0.4938,0.8659,0.3215,0.9532,-0.0691,0.6859,3.4444,-0.7484,0.0073,939.3482,-11.6087,-11.4563,-0.4237,776.5037,130.4632,-77.2780,25.8546,84.6582,0.00000000,0.00000000,0.00000000,
2.426150,0.5212,1.1785,0.1815,0.9532,-0.0691,0.6859,3.4444,-0.7484,0.0073,939.3482,-11.6087,-11.4563,-0.4237,776.5037,130.4632,-77.2780,25.8546,84.6582,0.00000000,0.00000000,0.00000000,
2.432459,0.5212,1.1785,0.1815,0.9532,-0.0691,0.6859,1.3332,-0.2711,0.2920,939.3482,-11.6087,-11.4563,-0.4237,776.5037,130.4632,-77.2780,25.8546,84.6582,0.00000000,0.00000000,0.00000000,
2.433446,0.5212,1.1785,0.1815,0.5164,3.0909,0.9110,1.3332,-0.2711,0.2920,939.3482,-11.6087,-11.4563,-0.4237,776.5037,130.4632,-77.2780,25.8546,84.6582,0.00000000,0.00000000,0.00000000,
2.434141,0.5212,1.1785,0.1815,0.5164,3.0909,0.9110,1.3332,-0.2711,0.2920,939.3482,-11.6087,-11.4563,-0.4237,776.5037,131.2890,-82.8310,27.1364,84.6582,0.00000000,0.00000000,0.00000000,
2.442064,0.5212,1.1785,0.1815,0.5164,3.0909,0.9110,1.3332,-0.2711,0.2920,939.3482,-15.3775,-12.1262,2.5762,776.5037,131.2890,-82.8310,27.1364,84.6582,0.00000000,0.00000000,0.00000000,
2.443055,0.5212,1.1785,0.1815,0.5164,3.0909,0.9110,1.3332,-0.2711,0.2920,939.3701,-15.3775,-12.1262,2.5762,776.5037,131.2890,-82.8310,27.1364,84.6582,0.00000000,0.00000000,0.00000000,
2.494127,0.5588,1.1642,0.1518,0.5164,3.0909,0.9110,1.3332,-0.2711,0.2920,939.3701,-15.3775,-12.1262,2.5762,776.5037,131.2890,-82.8310,27.1364,84.6582,0.00000000,0.00000000,0.00000000,
2.498557,0.5588,1.1642,0.1518,0.5164,3.0909,0.9110,0.8242,0.3812,0.4361,939.3701,-15.3775,-12.1262,2.5762,776.5037,131.2890,-82.8310,27.1364,84.6582,0.00000000,0.00000000,0.00000000,
2.499390,0.5588,1.1642,0.1518,0.7897,2.6887,0.6256,0.8242,0.3812,0.4361,939.3701,-15.3775,-12.1262,2.5762,776.5037,131.2890,-82.8310,27.1364,84.6582,0.00000000,0.00000000,0.00000000,
2.500086,0.5588,1.1642,0.1518,0.7897,2.6887,0.6256,0.8242,0.3812,0.4361,939.3701,-15.3775,-12.1262,2.5762,776.5037,128.2646,-85.1258,28.6823,84.6582,0.00000000,0.00000000,0.00000000,
2.512494,0.5588,1.1642,0.1518,0.7897,2.6887,0.6256,0.8242,0.3812,0.4361,939.3701,-19.4613,-11.1725,2.4237,776.5037,128.2646,-85.1258,28.6823,84.6582,0.00000000,0.00000000,0.00000000,
2.526167,0.5588,1.1642,0.1518,0.7897,2.6887,0.6256,0.8242,0.3812,0.4361,939.3593,-19.4613,-11.1725,2.4237,776.5037,128.2646,-85.1258,28.6823,84.6582,0.00000000,0.00000000,0.00000000,
2.528233,0.5588,1.1642,0.1518,0.7897,2.6887,0.6256,0.8242,0.3812,0.4361,939.3593,-19.4613,-11.1725,2.4237,254.9700,128.2646,-85.1258,28.6823,84.6582,0.00000000,0.00000000,0.00000000,
2.561499,0.4217,0.9884,0.0773,0.7897,2.6887,0.6256,0.8242,0.3812,0.4361,939.3593,-19.4613,-11.1725,2.4237,254.9700,128.2646,-85.1258,28.6823,84.6582,0.00000000,0.00000000,0.00000000,
2.566627,0.4217,0.9884,0.0773,0.7897,2.6887,0.6256,-0.9451,1.0323,-0.4415,939.3593,-19.4613,-11.1725,2.4237,254.9700,128.2646,-85.1258,28.6823,84.6582,0.00000000,0.00000000,0.00000000,
2.567960,0.4217,0.9884,0.0773,-0.3855,1.0214,-0.7182,-0.9451,1.0323,-0.4415,939.3593,-19.4613,-11.1725,2.4237,254.9700,128.2646,-85.1258,28.6823,84.6582,0.00000000,0.00000000,0.00000000,
2.568780,0.4217,0.9884,0.0773,-0.3855,1.0214,-0.7182,-0.9451,1.0323,-0.4415,939.3593,-19.4613,-11.1725,2.4237,254.9700,122.7625,-79.5417,26.4788,84.6582,0.00000000,0.00000000,0.00000000,
2.582503,0.4217,0.9884,0.0773,-0.3855,1.0214,-0.7182,-0.9451,1.0323,-0.4415,939.3593,-21.5000,-12.3438,0.4688,254.9700,122.7625,-79.5417,26.4788,84.6582,0.00000000,0.00000000,0.00000000,
2.603342,0.4217,0.9884,0.0773,-0.3855,1.0214,-0.7182,-0.9451,1.0323,-0.4415,939.3580,-21.5000,-12.3438,0.4688,254.9700,122.7625,-79.5417,26.4788,84.6582,0.00000000,0.00000000,0.00000000,
2.628769,0.4150,0.9284,0.2512,-0.3855,1.0214,-0.7182,-0.9451,1.0323,-0.4415,939.3580,-21.5000,-12.3438,0.4688,254.9700,122.7625,-79.5417,26.4788,84.6582,0.00000000,0.00000000,0.00000000,
2.630484,0.4150,0.9284,0.2512,-0.3855,1.0214,-0.7182,-0.9451,1.0323,-0.4415,939.3580,-21.5000,-12.3438,0.4688,312.1013,122.7625,-79.5417,26.4788,84.6582,0.00000000,0.00000000,0.00000000,
2.633115,0.4150,0.9284,0.2512,-0.3855,1.0214,-0.7182,-1.0588,1.0042,-0.3244,939.3580,-21.5000,-12.3438,0.4688,312.1013,122.7625,-79.5417,26.4788,84.6582,0.00000000,0.00000000,0.00000000,
2.634079,0.4150,0.9284,0.2512,0.0338,0.4439,0.1067,-1.0588,1.0042,-0.3244,939.3580,-21.5000,-12.3438,0.4688,312.1013,122.7625,-79.5417,26.4788,84.6582,0.00000000,0.00000000,0.00000000,
2.634881,0.4150,0.9284,0.2512,0.0338,0.4439,0.1067,-1.0588,1.0042,-0.3244,939.3580,-21.5000,-12.3438,0.4688,312.1013,117.5920,-73.8124,24.3619,84.6582,0.00000000,0.00000000,0.00000000,
2.642895,0.4150,0.9284,0.2512,0.0338,0.4439,0.1067,-1.0588,1.0042,-0.3244,939.3626,-21.5000,-12.3438,0.4688,312.1013,117.5920,-73.8124,24.3619,84.6582,0.00000000,0.00000000,0.00000000,
2.652962,0.4150,0.9284,0.2512,0.0338,0.4439,0.1067,-1.0588,1.0042,-0.3244,939.3626,-23.4613,-13.0712,-2.7962,312.1013,117.5920,-73.8124,24.3619,87.5976,0.00000000,0.00000000,0.00000000,
2.695943,0.3630,0.8538,0.2501,0.0338,0.4439,0.1067,-1.0588,1.0042,-0.3244,939.3626,-23.4613,-13.0712,-2.7962,312.1013,117.5920,-73.8124,24.3619,87.5976,0.00000000,0.00000000,0.00000000,
2.700910,0.3630,0.8538,0.2501,0.0338,0.4439,0.1067,-0.0527,0.6712,-0.1970,939.3626,-23.4613,-13.0712,-2.7962,312.1013,117.5920,-73.8124,24.3619,87.5976,0.00000000,0.00000000,0.00000000,
2.701919,0.3630,0.8538,0.2501,-0.1830,-0.2880,-0.3021,-0.0527,0.6712,-0.1970,939.3626,-23.4613,-13.0712,-2.7962,312.1013,117.5920,-73.8124,24.3619,87.5976,0.00000000,0.00000000,0.00000000,
2.702670,0.3630,0.8538,0.2501,-0.1830,-0.2880,-0.3021,-0.0527,0.6712,-0.1970,939.3626,-23.4613,-13.0712,-2.7962,312.1013,113.9358,-72.6235,22.8799,87.5976,0.00000000,0.00000000,0.00000000,
2.722789,0.3630,0.8538,0.2501,-0.1830,-0.2880,-0.3021,-0.0527,0.6712,-0.1970,939.3626,-24.9637,-13.8725,-5.1700,312.1013,113.9358,-72.6235,22.8799,87.5976,0.00000000,0.00000000,0.00000000,
2.724206,0.3630,0.8538,0.2501,-0.1830,-0.2880,-0.3021,-0.0527,0.6712,-0.1970,939.3864,-24.9637,-13.8725,-5.1700,312.1013,113.9358,-72.6235,22.8799,87.5976,0.00000000,0.00000000,0.00000000,
2.734810,0.3630,0.8538,0.2501,-0.1830,-0.2880,-0.3021,-0.0527,0.6712,-0.1970,939.3864,-24.9637,-13.8725,-5.1700,361.5675,113.9358,-72.6235,22.8799,87.5976,0.00000000,0.00000000,0.00000000,
2.763450,0.4011,0.8583,0.2544,-0.1830,-0.2880,-0.3021,-0.0527,0.6712,-0.1970,939.3864,-24.9637,-13.8725,-5.1700,361.5675,113.9358,-72.6235,22.8799,87.5976,0.00000000,0.00000000,0.00000000,
2.767384,0.4011,0.8583,0.2544,-0.1830,-0.2880,-0.3021,-0.0611,0.5820,-0.0476,939.3864,-24.9637,-13.8725,-5.1700,361.5675,113.9358,-72.6235,22.8799,87.5976,0.00000000,0.00000000,0.00000000,
2.768468,0.4011,0.8583,0.2544,0.2293,-0.1862,-0.3613,-0.0611,0.5820,-0.0476,939.3864,-24.9637,-13.8725,-5.1700,361.5675,113.9358,-72.6235,22.8799,87.5976,0.00000000,0.00000000,0.00000000,
2.769229,0.4011,0.8583,0.2544,0.2293,-0.1862,-0.3613,-0.0611,0.5820,-0.0476,939.3864,-24.9637,-13.8725,-5.1700,361.5675,110.3230,-71.5378,22.0224,87.5976,0.00000000,0.00000000,0.00000000,
2.793017,0.4011,0.8583,0.2544,0.2293,-0.1862,-0.3613,-0.0611,0.5820,-0.0476,939.3864,-27.4862,-14.0437,-6.9450,361.5675,110.3230,-71.5378,22.0224,87.5976,0.00000000,0.00000000,0.00000000,
2.803306,0.4011,0.8583,0.2544,0.2293,-0.1862,-0.3613,-0.0611,0.5820,-0.0476,939.3756,-27.4862,-14.0437,-6.9450,361.5675,110.3230,-71.5378,22.0224,87.5976,0.00000000,0.00000000,0.00000000,
2.830668,0.3946,0.9107,0.2630,0.2293,-0.1862,-0.3613,-0.0611,0.5820,-0.0476,939.3756,-27.4862,-14.0437,-6.9450,361.5675,110.3230,-71.5378,22.0224,87.5976,0.00000000,0.00000000,0.00000000,
2.834680,0.3946,0.9107,0.2630,0.2293,-0.1862,-0.3613,-0.4468,0.2798,0.0945,939.3756,-27.4862,-14.0437,-6.9450,361.5675,110.3230,-71.5378,22.0224,87.5976,0.00000000,0.00000000,0.00000000,
2.835709,0.3946,0.9107,0.2630,0.2183,0.4084,-0.5770,-0.4468,0.2798,0.0945,939.3756,-27.4862,-14.0437,-6.9450,361.5675,110.3230,-71.5378,22.0224,87.5976,0.00000000,0.00000000,0.00000000,
2.836556,0.3946,0.9107,0.2630,0.2183,0.4084,-0.5770,-0.4468,0.2798,0.0945,939.3756,-27.4862,-14.0437,-6.9450,361.5675,107.6864,-69.3606,22.0055,87.5976,0.00000000,0.00000000,0.00000000,
2.843205,0.3946,0.9107,0.2630,0.2183,0.4084,-0.5770,-0.4468,0.2798,0.0945,939.3832,-27.4862,-14.0437,-6.9450,361.5675,107.6864,-69.3606,22.0055,87.5976,0.00000000,0.00000000,0.00000000,
2.863520,0.3946,0.9107,0.2630,0.2183,0.4084,-0.5770,-0.4468,0.2798,0.0945,939.3832,-31.4137,-13.3375,-9.6750,361.5675,107.6864,-69.3606,22.0055,87.5976,0.00000000,0.00000000,0.00000000,
2.898746,0.3598,1.0494,0.3073,0.2183,0.4084,-0.5770,-0.4468,0.2798,0.0945,939.3832,-31.4137,-13.3375,-9.6750,361.5675,107.6864,-69.3606,22.0055,87.5976,0.00000000,0.00000000,0.00000000,
2.902827,0.3598,1.0494,0.3073,0.2183,0.4084,-0.5770,-0.4310,0.2714,0.0105,939.3832,-31.4137,-13.3375,-9.6750,361.5675,107.6864,-69.3606,22.0055,87.5976,0.00000000,0.00000000,0.00000000,
2.903931,0.3598,1.0494,0.3073,-0.2627,2.0039,-0.4530,-0.4310,0.2714,0.0105,939.3832,-31.4137,-13.3375,-9.6750,361.5675,107.6864,-69.3606,22.0055,87.5976,0.00000000,0.00000000,0.00000000,
2.904976,0.3598,1.0494,0.3073,-0.2627,2.0039,-0.4530,-0.4310,0.2714,0.0105,939.3832,-31.4137,-13.3375,-9.6750,361.5675,105.3808,-67.3141,21.6654,87.5976,0.00000000,0.00000000,0.00000000,
2.923133,0.3598,1.0494,0.3073,-0.2627,2.0039,-0.4530,-0.4310,0.2714,0.0105,939.3970,-31.4137,-13.3375,-9.6750,361.5675,105.3808,-67.3141,21.6654,87.5976,0.00000000,0.00000000,0.00000000,
2.934120,0.3598,1.0494,0.3073,-0.2627,2.0039,-0.4530,-0.4310,0.2714,0.0105,939.3970,-34.4275,-11.8337,-11.8263,361.5675,105.3808,-67.3141,21.6654,87.5976,0.00000000,0.00000000,0.00000000,
2.964540,0.3514,1.0828,0.4121,-0.2627,2.0039,-0.4530,-0.4310,0.2714,0.0105,939.3970,-34.4275,-11.8337,-11.8263,361.5675,105.3808,-67.3141,21.6654,86.8534,0.00000000,0.00000000,0.00000000,
2.969032,0.3514,1.0828,0.4121,-0.2627,2.0039,-0.4530,-0.4650,-0.2420,0.0657,939.3970,-34.4275,-11.8337,-11.8263,361.5675,105.3808,-67.3141,21.6654,86.8534,0.00000000,0.00000000,0.00000000,
2.970237,0.3514,1.0828,0.4121,-0.1213,2.1810,0.3828,-0.4650,-0.2420,0.0657,939.3970,-34.4275,-11.8337,-11.8263,361.5675,105.3808,-67.3141,21.6654,86.8534,0.00000000,0.00000000,0.00000000,
2.971044,0.3514,1.0828,0.4121,-0.1213,2.1810,0.3828,-0.4650,-0.2420,0.0657,939.3970,-34.4275,-11.8337,-11.8263,361.5675,104.7532,-65.8324,22.2662,86.8534,0.00000000,0.00000000,0.00000000,
3.003185,0.3514,1.0828,0.4121,-0.1213,2.1810,0.3828,-0.4650,-0.2420,0.0657,939.3758,-34.4275,-11.8337,-11.8263,361.5675,104.7532,-65.8324,22.2662,86.8534,0.00000000,0.00000000,0.00000000,
3.004589,0.3514,1.0828,0.4121,-0.1213,2.1810,0.3828,-0.4650,-0.2420,0.0657,939.3758,-35.7475,-10.9825,-13.0100,361.5675,104.7532,-65.8324,22.2662,86.8534,0.00000000,0.00000000,0.00000000,
3.032243,0.3474,0.8421,0.3506,-0.1213,2.1810,0.3828,-0.4650,-0.2420,0.0657,939.3758,-35.7475,-10.9825,-13.0100,361.5675,104.7532,-65.8324,22.2662,86.8534,0.00000000,0.00000000,0.00000000,
3.036033,0.3474,0.8421,0.3506,-0.1213,2.1810,0.3828,0.1521,-0.0140,0.0113,939.3758,-35.7475,-10.9825,-13.0100,361.5675,104.7532,-65.8324,22.2662,86.8534,0.00000000,0.00000000,0.00000000,
3.036844,0.3474,0.8421,0.3506,-0.3135,-0.1874,-0.3015,0.1521,-0.0140,0.0113,939.3758,-35.7475,-10.9825,-13.0100,361.5675,104.7532,-65.8324,22.2662,86.8534,0.00000000,0.00000000,0.00000000,
3.037613,0.3474,0.8421,0.3506,-0.3135,-0.1874,-0.3015,0.1521,-0.0140,0.0113,939.3758,-35.7475,-10.9825,-13.0100,361.5675,103.2947,-66.4320,22.3275,86.8534,0.00000000,0.00000000,0.00000000,
3.042460,0.3474,0.8421,0.3506,-0.3135,-0.1874,-0.3015,0.1521,-0.0140,0.0113,939.3647,-35.7475,-10.9825,-13.0100,361.5675,103.2947,-66.4320,22.3275,86.8534,0.00000000,0.00000000,0.00000000,
3.045690,0.3474,0.8421,0.3506,-0.3135,-0.1874,-0.3015,0.1521,-0.0140,0.0113,939.3647,-35.7475,-10.9825,-13.0100,391.4550,103.2947,-66.4320,22.3275,86.8534,0.00000000,0.00000000,0.00000000,
3.073281,0.3474,0.8421,0.3506,-0.3135,-0.1874,-0.3015,0.1521,-0.0140,0.0113,939.3647,-35.0700,-9.4937,-13.3287,391.4550,103.2947,-66.4320,22.3275,86.8534,0.00000000,0.00000000,0.00000000,
3.098826,0.3379,0.8206,0.3255,-0.3135,-0.1874,-0.3015,0.1521,-0.0140,0.0113,939.3647,-35.0700,-9.4937,-13.3287,391.4550,103.2947,-66.4320,22.3275,86.8534,0.00000000,0.00000000,0.00000000,
3.104543,0.3379,0.8206,0.3255,-0.3135,-0.1874,-0.3015,-0.0538,0.0525,0.1103,939.3647,-35.0700,-9.4937,-13.3287,391.4550,103.2947,-66.4320,22.3275,86.8534,0.00000000,0.00000000,0.00000000,
3.105628,0.3379,0.8206,0.3255,-0.4645,-0.2062,-0.4400,-0.0538,0.0525,0.1103,939.3647,-35.0700,-9.4937,-13.3287,391.4550,103.2947,-66.4320,22.3275,86.8534,0.00000000,0.00000000,0.00000000,
3.106398,0.3379,0.8206,0.3255,-0.4645,-0.2062,-0.4400,-0.0538,0.0525,0.1103,939.3647,-35.0700,-9.4937,-13.3287,391.4550,101.4997,-66.0805,22.6329,86.8534,0.00000000,0.00000000,0.00000000,
3.122943,0.3379,0.8206,0.3255,-0.4645,-0.2062,-0.4400,-0.0538,0.0525,0.1103,939.4003,-35.0700,-9.4937,-13.3287,391.4550,101.4997,-66.0805,22.6329,86.8534,0.00000000,0.00000000,0.00000000,
3.143885,0.3379,0.8206,0.3255,-0.4645,-0.2062,-0.4400,-0.0538,0.0525,0.1103,939.4003,-35.9512,-10.3212,-13.4437,391.4550,101.4997,-66.0805,22.6329,86.8534,0.00000000,0.00000000,0.00000000,
3.166101,0.3595,0.8813,0.3139,-0.4645,-0.2062,-0.4400,-0.0538,0.0525,0.1103,939.4003,-35.9512,-10.3212,-13.4437,391.4550,101.4997,-66.0805,22.6329,86.8534,0.00000000,0.00000000,0.00000000,
3.171643,0.3595,0.8813,0.3139,-0.4645,-0.2062,-0.4400,-0.1614,0.0892,0.1767,939.4003,-35.9512,-10.3212,-13.4437,391.4550,101.4997,-66.0805,22.6329,86.8534,0.00000000,0.00000000,0.00000000,
3.172898,0.3595,0.8813,0.3139,-0.3559,0.5238,-0.6748,-0.1614,0.0892,0.1767,939.4003,-35.9512,-10.3212,-13.4437,391.4550,101.4997,-66.0805,22.6329,86.8534,0.00000000,0.00000000,0.00000000,
3.173659,0.3595,0.8813,0.3139,-0.3559,0.5238,-0.6748,-0.1614,0.0892,0.1767,939.4003,-35.9512,-10.3212,-13.4437,391.4550,99.7101,-65.2139,23.1094,86.8534,0.00000000,0.00000000,0.00000000,
3.202611,0.3595,0.8813,0.3139,-0.3559,0.5238,-0.6748,-0.1614,0.0892,0.1767,939.3885,-35.9512,-10.3212,-13.4437,391.4550,99.7101,-65.2139,23.1094,86.8534,0.00000000,0.00000000,0.00000000,
3.213810,0.3595,0.8813,0.3139,-0.3559,0.5238,-0.6748,-0.1614,0.0892,0.1767,939.3885,-36.7925,-9.2200,-14.9462,391.4550,99.7101,-65.2139,23.1094,86.8534,0.00000000,0.00000000,0.00000000,
3.234188,0.3241,0.9035,0.3058,-0.3559,0.5238,-0.6748,-0.1614,0.0892,0.1767,939.3885,-36.7925,-9.2200,-14.9462,391.4550,99.7101,-65.2139,23.1094,86.8534,0.00000000,0.00000000,0.00000000,
3.237608,0.3241,0.9035,0.3058,-0.3559,0.5238,-0.6748,-0.4048,-0.0782,0.2211,939.3885,-36.7925,-9.2200,-14.9462,391.4550,99.7101,-65.2139,23.1094,86.8534,0.00000000,0.00000000,0.00000000,
3.238651,0.3241,0.9035,0.3058,-0.7645,0.7269,-1.0188,-0.4048,-0.0782,0.2211,939.3885,-36.7925,-9.2200,-14.9462,391.4550,99.7101,-65.2139,23.1094,86.8534,0.00000000,0.00000000,0.00000000,
3.239520,0.3241,0.9035,0.3058,-0.7645,0.7269,-1.0188,-0.4048,-0.0782,0.2211,939.3885,-36.7925,-9.2200,-14.9462,391.4550,98.2673,-63.6220,24.0041,86.8534,0.00000000,0.00000000,0.00000000,
3.242587,0.3241,0.9035,0.3058,-0.7645,0.7269,-1.0188,-0.4048,-0.0782,0.2211,939.3818,-36.7925,-9.2200,-14.9462,391.4550,98.2673,-63.6220,24.0041,86.8534,0.00000000,0.00000000,0.00000000,
3.284001,0.3241,0.9035,0.3058,-0.7645,0.7269,-1.0188,-0.4048,-0.0782,0.2211,939.3818,-38.4475,-9.5387,-16.4550,391.4550,98.2673,-63.6220,24.0041,88.3666,0.00000000,0.00000000,0.00000000,
3.301427,0.4480,0.7326,0.2976,-0.7645,0.7269,-1.0188,-0.4048,-0.0782,0.2211,939.3818,-38.4475,-9.5387,-16.4550,391.4550,98.2673,-63.6220,24.0041,88.3666,0.00000000,0.00000000,0.00000000,
3.306069,0.4480,0.7326,0.2976,-0.7645,0.7269,-1.0188,-0.9180,0.2957,0.0667,939.3818,-38.4475,-9.5387,-16.4550,391.4550,98.2673,-63.6220,24.0041,88.3666,0.00000000,0.00000000,0.00000000,
3.307026,0.4480,0.7326,0.2976,0.4772,-0.6088,-1.5031,-0.9180,0.2957,0.0667,939.3818,-38.4475,-9.5387,-16.4550,391.4550,98.2673,-63.6220,24.0041,88.3666,0.00000000,0.00000000,0.00000000,
3.307836,0.4480,0.7326,0.2976,0.4772,-0.6088,-1.5031,-0.9180,0.2957,0.0667,939.3818,-38.4475,-9.5387,-16.4550,391.4550,95.7281,-59.6008,23.6821,88.3666,0.00000000,0.00000000,0.00000000,
3.323316,0.4480,0.7326,0.2976,0.4772,-0.6088,-1.5031,-0.9180,0.2957,0.0667,939.4049,-38.4475,-9.5387,-16.4550,391.4550,95.7281,-59.6008,23.6821,88.3666,0.00000000,0.00000000,0.00000000,
3.356886,0.4480,0.7326,0.2976,0.4772,-0.6088,-1.5031,-0.9180,0.2957,0.0667,939.4049,-38.4475,-9.5387,-16.4550,481.4450,95.7281,-59.6008,23.6821,88.3666,0.00000000,0.00000000,0.00000000,
3.357889,0.4480,0.7326,0.2976,0.4772,-0.6088,-1.5031,-0.9180,0.2957,0.0667,939.4049,-40.6550,-9.1000,-20.9325,481.4450,95.7281,-59.6008,23.6821,88.3666,0.00000000,0.00000000,0.00000000,
3.368565,0.3569,0.8545,0.5460,0.4772,-0.6088,-1.5031,-0.9180,0.2957,0.0667,939.4049,-40.6550,-9.1000,-20.9325,481.4450,95.7281,-59.6008,23.6821,88.3666,0.00000000,0.00000000,0.00000000,
3.372247,0.3569,0.8545,0.5460,0.4772,-0.6088,-1.5031,-0.8057,0.4558,-0.1397,939.4049,-40.6550,-9.1000,-20.9325,481.4450,95.7281,-59.6008,23.6821,88.3666,0.00000000,0.00000000,0.00000000,
3.373178,0.3569,0.8545,0.5460,-0.2291,0.8894,0.4375,-0.8057,0.4558,-0.1397,939.4049,-40.6550,-9.1000,-20.9325,481.4450,95.7281,-59.6008,23.6821,88.3666,0.00000000,0.00000000,0.00000000,
3.373936,0.3569,0.8545,0.5460,-0.2291,0.8894,0.4375,-0.8057,0.4558,-0.1397,939.4049,-40.6550,-9.1000,-20.9325,481.4450,93.2556,-55.9884,22.2954,88.3666,0.00000000,0.00000000,0.00000000,
3.402749,0.3569,0.8545,0.5460,-0.2291,0.8894,0.4375,-0.8057,0.4558,-0.1397,939.3786,-40.6550,-9.1000,-20.9325,481.4450,93.2556,-55.9884,22.2954,88.3666,0.00000000,0.00000000,0.00000000,
3.424522,0.3569,0.8545,0.5460,-0.2291,0.8894,0.4375,-0.8057,0.4558,-0.1397,939.3786,-41.9112,-9.4237,-24.0212,481.4450,93.2556,-55.9884,22.2954,88.3666,0.00000000,0.00000000,0.00000000,
3.435895,0.3286,0.8088,0.6362,-0.2291,0.8894,0.4375,-0.8057,0.4558,-0.1397,939.3786,-41.9112,-9.4237,-24.0212,481.4450,93.2556,-55.9884,22.2954,88.3666,0.00000000,0.00000000,0.00000000,
3.439331,0.3286,0.8088,0.6362,-0.2291,0.8894,0.4375,0.1138,0.2640,0.0189,939.3786,-41.9112,-9.4237,-24.0212,481.4450,93.2556,-55.9884,22.2954,88.3666,0.00000000,0.00000000,0.00000000,
3.440287,0.3286,0.8088,0.6362,-0.4815,0.2784,1.0487,0.1138,0.2640,0.0189,939.3786,-41.9112,-9.4237,-24.0212,481.4450,93.2556,-55.9884,22.2954,88.3666,0.00000000,0.00000000,0.00000000,
3.441149,0.3286,0.8088,0.6362,-0.4815,0.2784,1.0487,0.1138,0.2640,0.0189,939.3786,-41.9112,-9.4237,-24.0212,481.4450,91.0066,-56.0669,21.7800,88.3666,0.00000000,0.00000000,0.00000000,
3.442137,0.3286,0.8088,0.6362,-0.4815,0.2784,1.0487,0.1138,0.2640,0.0189,939.4194,-41.9112,-9.4237,-24.0212,481.4450,91.0066,-56.0669,21.7800,88.3666,0.00000000,0.00000000,0.00000000,
3.458125,0.3286,0.8088,0.6362,-0.4815,0.2784,1.0487,0.1138,0.2640,0.0189,939.4194,-41.9112,-9.4237,-24.0212,536.0850,91.0066,-56.0669,21.7800,88.3666,0.00000000,0.00000000,0.00000000,
3.494577,0.3286,0.8088,0.6362,-0.4815,0.2784,1.0487,0.1138,0.2640,0.0189,939.4194,-41.4712,-9.1400,-24.3350,536.0850,91.0066,-56.0669,21.7800,88.3666,0.00000000,0.00000000,0.00000000,
3.501823,0.3451,0.8028,0.3630,-0.4815,0.2784,1.0487,0.1138,0.2640,0.0189,939.4194,-41.4712,-9.1400,-24.3350,536.0850,91.0066,-56.0669,21.7800,88.3666,0.00000000,0.00000000,0.00000000,
3.506322,0.3451,0.8028,0.3630,-0.4815,0.2784,1.0487,0.1622,0.3192,-0.0035,939.4194,-41.4712,-9.1400,-24.3350,536.0850,91.0066,-56.0669,21.7800,88.3666,0.00000000,0.00000000,0.00000000,
3.507268,0.3451,0.8028,0.3630,-0.0690,0.4198,-1.4994,0.1622,0.3192,-0.0035,939.4194,-41.4712,-9.1400,-24.3350,536.0850,91.0066,-56.0669,21.7800,88.3666,0.00000000,0.00000000,0.00000000,
3.508161,0.3451,0.8028,0.3630,-0.0690,0.4198,-1.4994,0.1622,0.3192,-0.0035,939.4194,-41.4712,-9.1400,-24.3350,536.0850,88.6709,-56.3034,21.0893,88.3666,0.00000000,0.00000000,0.00000000,
3.522702,0.3451,0.8028,0.3630,-0.0690,0.4198,-1.4994,0.1622,0.3192,-0.0035,939.3837,-41.4712,-9.1400,-24.3350,536.0850,88.6709,-56.3034,21.0893,88.3666,0.00000000,0.00000000,0.00000000,
3.565039,0.3451,0.8028,0.3630,-0.0690,0.4198,-1.4994,0.1622,0.3192,-0.0035,939.3837,-40.6575,-9.3587,-25.6388,536.0850,88.6709,-56.3034,21.0893,88.0644,0.00000000,0.00000000,0.00000000,
3.568943,0.3670,0.8097,0.4680,-0.0690,0.4198,-1.4994,0.1622,0.3192,-0.0035,939.3837,-40.6575,-9.3587,-25.6388,536.0850,88.6709,-56.3034,21.0893,88.0644,0.00000000,0.00000000,0.00000000,
3.573770,0.3670,0.8097,0.4680,-0.0690,0.4198,-1.4994,-0.2071,0.3847,0.1266,939.3837,-40.6575,-9.3587,-25.6388,536.0850,88.6709,-56.3034,21.0893,88.0644,0.00000000,0.00000000,0.00000000,
3.574679,0.3670,0.8097,0.4680,0.1449,0.1941,-0.6772,-0.2071,0.3847,0.1266,939.3837,-40.6575,-9.3587,-25.6388,536.0850,88.6709,-56.3034,21.0893,88.0644,0.00000000,0.00000000,0.00000000,
3.575455,0.3670,0.8097,0.4680,0.1449,0.1941,-0.6772,-0.2071,0.3847,0.1266,939.3837,-40.6575,-9.3587,-25.6388,536.0850,86.0401,-54.9384,20.6584,88.0644,0.00000000,0.00000000,0.00000000,
3.603175,0.3670,0.8097,0.4680,0.1449,0.1941,-0.6772,-0.2071,0.3847,0.1266,939.3654,-40.6575,-9.3587,-25.6388,536.0850,86.0401,-54.9384,20.6584,88.0644,0.00000000,0.00000000,0.00000000,
3.635976,0.3670,0.8097,0.4680,0.1449,0.1941,-0.6772,-0.2071,0.3847,0.1266,939.3654,-40.4025,-9.2787,-28.2237,536.0850,86.0401,-54.9384,20.6584,88.0644,0.00000000,0.00000000,0.00000000,
3.637767,0.3566,0.7811,0.5257,0.1449,0.1941,-0.6772,-0.2071,0.3847,0.1266,939.3654,-40.4025,-9.2787,-28.2237,536.0850,86.0401,-54.9384,20.6584,88.0644,0.00000000,0.00000000,0.00000000,
3.641140,0.3566,0.7811,0.5257,0.1449,0.1941,-0.6772,-0.1263,0.6328,-0.1768,939.3654,-40.4025,-9.2787,-28.2237,536.0850,86.0401,-54.9384,20.6584,88.0644,0.00000000,0.00000000,0.00000000,
3.642149,0.3566,0.7811,0.5257,0.2581,0.2097,-0.2941,-0.1263,0.6328,-0.1768,939.3654,-40.4025,-9.2787,-28.2237,536.0850,86.0401,-54.9384,20.6584,88.0644,0.00000000,0.00000000,0.00000000,
3.642935,0.3566,0.7811,0.5257,0.2581,0.2097,-0.2941,-0.1263,0.6328,-0.1768,939.3654,-40.4025,-9.2787,-28.2237,536.0850,83.1789,-53.8880,18.6846,88.0644,0.00000000,0.00000000,0.00000000,
3.643678,0.3566,0.7811,0.5257,0.2581,0.2097,-0.2941,-0.1263,0.6328,-0.1768,939.3901,-40.4025,-9.2787,-28.2237,536.0850,83.1789,-53.8880,18.6846,88.0644,0.00000000,0.00000000,0.00000000,
3.703805,0.2304,0.8050,0.5126,0.2581,0.2097,-0.2941,-0.1263,0.6328,-0.1768,939.3901,-40.4025,-9.2787,-28.2237,536.0850,83.1789,-53.8880,18.6846,88.0644,0.00000000,0.00000000,0.00000000,
3.705398,0.2304,0.8050,0.5126,0.2581,0.2097,-0.2941,-0.1263,0.6328,-0.1768,939.3901,-39.6737,-8.4537,-30.3375,536.0850,83.1789,-53.8880,18.6846,88.0644,0.00000000,0.00000000,0.00000000,
3.708105,0.2304,0.8050,0.5126,0.2581,0.2097,-0.2941,-0.0498,0.8972,-0.0831,939.3901,-39.6737,-8.4537,-30.3375,536.0850,83.1789,-53.8880,18.6846,88.0644,0.00000000,0.00000000,0.00000000,
3.708971,0.2304,0.8050,0.5126,-0.4847,0.3833,-0.6348,-0.0498,0.8972,-0.0831,939.3901,-39.6737,-8.4537,-30.3375,536.0850,83.1789,-53.8880,18.6846,88.0644,0.00000000,0.00000000,0.00000000,
3.709704,0.2304,0.8050,0.5126,-0.4847,0.3833,-0.6348,-0.0498,0.8972,-0.0831,939.3901,-39.6737,-8.4537,-30.3375,536.0850,79.3509,-52.8923,16.3647,88.0644,0.00000000,0.00000000,0.00000000,
3.722728,0.2304,0.8050,0.5126,-0.4847,0.3833,-0.6348,-0.0498,0.8972,-0.0831,939.3826,-39.6737,-8.4537,-30.3375,536.0850,79.3509,-52.8923,16.3647,88.0644,0.00000000,0.00000000,0.00000000,
3.771494,0.1985,0.7946,0.4948,-0.4847,0.3833,-0.6348,-0.0498,0.8972,-0.0831,939.3826,-39.6737,-8.4537,-30.3375,536.0850,79.3509,-52.8923,16.3647,88.0644,0.00000000,0.00000000,0.00000000,
3.775181,0.1985,0.7946,0.4948,-0.4847,0.3833,-0.6348,-0.0498,0.8972,-0.0831,939.3826,-38.3563,-7.6150,-33.8488,536.0850,79.3509,-52.8923,16.3647,88.0644,0.00000000,0.00000000,0.00000000,
3.776223,0.1985,0.7946,0.4948,-0.4847,0.3833,-0.6348,-0.4328,0.6735,0.2005,939.3826,-38.3563,-7.6150,-33.8488,536.0850,79.3509,-52.8923,16.3647,88.0644,0.00000000,0.00000000,0.00000000,
3.777011,0.1985,0.7946,0.4948,-0.7042,0.4430,-1.1544,-0.4328,0.6735,0.2005,939.3826,-38.3563,-7.6150,-33.8488,536.0850,79.3509,-52.8923,16.3647,88.0644,0.00000000,0.00000000,0.00000000,
3.777859,0.1985,0.7946,0.4948,-0.7042,0.4430,-1.1544,-0.4328,0.6735,0.2005,939.3826,-38.3563,-7.6150,-33.8488,536.0850,75.6152,-50.5238,15.3655,88.0644,0.00000000,0.00000000,0.00000000,
3.802695,0.1985,0.7946,0.4948,-0.7042,0.4430,-1.1544,-0.4328,0.6735,0.2005,939.3594,-38.3563,-7.6150,-33.8488,536.0850,75.6152,-50.5238,15.3655,88.0644,0.00000000,0.00000000,0.00000000,
3.837921,0.2849,0.7620,0.5862,-0.7042,0.4430,-1.1544,-0.4328,0.6735,0.2005,939.3594,-38.3563,-7.6150,-33.8488,536.0850,75.6152,-50.5238,15.3655,88.0644,0.00000000,0.00000000,0.00000000,
3.842759,0.2849,0.7620,0.5862,-0.7042,0.4430,-1.1544,-0.6958,1.1728,0.3468,939.3594,-38.3563,-7.6150,-33.8488,536.0850,75.6152,-50.5238,15.3655,88.0644,0.00000000,0.00000000,0.00000000,
3.843615,0.2849,0.7620,0.5862,-0.7042,0.4430,-1.1544,-0.6958,1.1728,0.3468,939.3898,-38.3563,-7.6150,-33.8488,536.0850,75.6152,-50.5238,15.3655,88.0644,0.00000000,0.00000000,0.00000000,
3.844235,0.2849,0.7620,0.5862,0.6525,0.4044,-0.4280,-0.6958,1.1728,0.3468,939.3898,-38.3563,-7.6150,-33.8488,536.0850,75.6152,-50.5238,15.3655,88.0644,0.00000000,0.00000000,0.00000000,
3.844976,0.2849,0.7620,0.5862,0.6525,0.4044,-0.4280,-0.6958,1.1728,0.3468,939.3898,-38.3563,-7.6150,-33.8488,536.0850,70.2381,-46.7490,13.4091,88.0644,0.00000000,0.00000000,0.00000000,
3.845729,0.2849,0.7620,0.5862,0.6525,0.4044,-0.4280,-0.6958,1.1728,0.3468,939.3898,-36.5562,-8.3687,-40.1012,536.0850,70.2381,-46.7490,13.4091,88.0644,0.00000000,0.00000000,0.00000000,
3.905580,0.2892,0.6775,0.7248,0.6525,0.4044,-0.4280,-0.6958,1.1728,0.3468,939.3898,-36.5562,-8.3687,-40.1012,536.0850,70.2381,-46.7490,13.4091,88.4169,0.00000000,0.00000000,0.00000000,
3.909601,0.2892,0.6775,0.7248,0.6525,0.4044,-0.4280,-0.3923,0.6174,-0.2272,939.3898,-36.5562,-8.3687,-40.1012,536.0850,70.2381,-46.7490,13.4091,88.4169,0.00000000,0.00000000,0.00000000,
3.911182,0.2892,0.6775,0.7248,0.8339,-0.1104,0.0569,-0.3923,0.6174,-0.2272,939.3898,-36.5562,-8.3687,-40.1012,536.0850,70.2381,-46.7490,13.4091,88.4169,0.00000000,0.00000000,0.00000000,
3.912053,0.2892,0.6775,0.7248,0.8339,-0.1104,0.0569,-0.3923,0.6174,-0.2272,939.3898,-36.5562,-8.3687,-40.1012,536.0850,67.9971,-44.9923,11.1341,88.4169,0.00000000,0.00000000,0.00000000,
3.915185,0.2892,0.6775,0.7248,0.8339,-0.1104,0.0569,-0.3923,0.6174,-0.2272,939.3898,-34.9338,-8.8612,-45.5462,536.0850,67.9971,-44.9923,11.1341,88.4169,0.00000000,0.00000000,0.00000000,
3.922230,0.2892,0.6775,0.7248,0.8339,-0.1104,0.0569,-0.3923,0.6174,-0.2272,939.4204,-34.9338,-8.8612,-45.5462,536.0850,67.9971,-44.9923,11.1341,88.4169,0.00000000,0.00000000,0.00000000,
3.972308,0.1521,0.7214,0.6508,0.8339,-0.1104,0.0569,-0.3923,0.6174,-0.2272,939.4204,-34.9338,-8.8612,-45.5462,536.0850,67.9971,-44.9923,11.1341,88.4169,0.00000000,0.00000000,0.00000000,
3.977820,0.1521,0.7214,0.6508,0.8339,-0.1104,0.0569,-0.3467,0.4192,-0.3659,939.4204,-34.9338,-8.8612,-45.5462,536.0850,67.9971,-44.9923,11.1341,88.4169,0.00000000,0.00000000,0.00000000,
3.980149,0.1521,0.7214,0.6508,-0.1013,0.3812,-0.6300,-0.3467,0.4192,-0.3659,939.4204,-34.9338,-8.8612,-45.5462,536.0850,67.9971,-44.9923,11.1341,88.4169,0.00000000,0.00000000,0.00000000,
3.981106,0.1521,0.7214,0.6508,-0.1013,0.3812,-0.6300,-0.3467,0.4192,-0.3659,939.4204,-34.9338,-8.8612,-45.5462,536.0850,66.8326,-43.6431,8.9944,88.4169,0.00000000,0.00000000,0.00000000,
3.985397,0.1521,0.7214,0.6508,-0.1013,0.3812,-0.6300,-0.3467,0.4192,-0.3659,939.4204,-35.3050,-8.8637,-49.1700,536.0850,66.8326,-43.6431,8.9944,88.4169,0.00000000,0.00000000,0.00000000,
4.002819,0.1521,0.7214,0.6508,-0.1013,0.3812,-0.6300,-0.3467,0.4192,-0.3659,939.4070,-35.3050,-8.8637,-49.1700,536.0850,66.8326,-43.6431,8.9944,88.4169,0.00000000,0.00000000,0.00000000,
4.039352,0.1372,0.7302,0.6328,-0.1013,0.3812,-0.6300,-0.3467,0.4192,-0.3659,939.4070,-35.3050,-8.8637,-49.1700,536.0850,66.8326,-43.6431,8.9944,88.4169,0.00000000,0.00000000,0.00000000,
4.042173,0.1372,0.7302,0.6328,-0.1013,0.3812,-0.6300,-0.3467,0.4192,-0.3659,939.4024,-35.3050,-8.8637,-49.1700,536.0850,66.8326,-43.6431,8.9944,88.4169,0.00000000,0.00000000,0.00000000,
4.043743,0.1372,0.7302,0.6328,-0.1013,0.3812,-0.6300,-0.4803,0.5695,-0.2805,939.4024,-35.3050,-8.8637,-49.1700,536.0850,66.8326,-43.6431,8.9944,88.4169,0.00000000,0.00000000,0.00000000,
4.044740,0.1372,0.7302,0.6328,0.1756,0.6347,-1.0499,-0.4803,0.5695,-0.2805,939.4024,-35.3050,-8.8637,-49.1700,536.0850,66.8326,-43.6431,8.9944,88.4169,0.00000000,0.00000000,0.00000000,
4.045435,0.1372,0.7302,0.6328,0.1756,0.6347,-1.0499,-0.4803,0.5695,-0.2805,939.4024,-35.3050,-8.8637,-49.1700,536.0850,65.3010,-41.7093,6.6517,88.4169,0.00000000,0.00000000,0.00000000,
4.057589,0.1372,0.7302,0.6328,0.1756,0.6347,-1.0499,-0.4803,0.5695,-0.2805,939.4024,-35.8250,-9.1750,-53.6925,536.0850,65.3010,-41.7093,6.6517,88.4169,0.00000000,0.00000000,0.00000000,
4.108008,0.0672,0.6952,0.6946,0.1756,0.6347,-1.0499,-0.4803,0.5695,-0.2805,939.4024,-35.8250,-9.1750,-53.6925,536.0850,65.3010,-41.7093,6.6517,88.4169,0.00000000,0.00000000,0.00000000,
4.111153,0.0672,0.6952,0.6946,0.1756,0.6347,-1.0499,-0.6736,0.7307,-0.2538,939.4024,-35.8250,-9.1750,-53.6925,536.0850,65.3010,-41.7093,6.6517,88.4169,0.00000000,0.00000000,0.00000000,
4.114141,0.0672,0.6952,0.6946,-0.0677,0.6145,-0.7224,-0.6736,0.7307,-0.2538,939.4024,-35.8250,-9.1750,-53.6925,536.0850,65.3010,-41.7093,6.6517,88.4169,0.00000000,0.00000000,0.00000000,
4.115136,0.0672,0.6952,0.6946,-0.0677,0.6145,-0.7224,-0.6736,0.7307,-0.2538,939.4024,-35.8250,-9.1750,-53.6925,536.0850,63.3429,-39.0254,3.8748,88.4169,0.00000000,0.00000000,0.00000000,
4.122314,0.0672,0.6952,0.6946,-0.0677,0.6145,-0.7224,-0.6736,0.7307,-0.2538,939.3820,-35.8250,-9.1750,-53.6925,536.0850,63.3429,-39.0254,3.8748,88.4169,0.00000000,0.00000000,0.00000000,
4.125744,0.0672,0.6952,0.6946,-0.0677,0.6145,-0.7224,-0.6736,0.7307,-0.2538,939.3820,-34.3525,-12.1687,-59.5737,536.0850,63.3429,-39.0254,3.8748,88.4169,0.00000000,0.00000000,0.00000000,
4.174029,0.0313,0.6604,0.7819,-0.0677,0.6145,-0.7224,-0.6736,0.7307,-0.2538,939.3820,-34.3525,-12.1687,-59.5737,536.0850,63.3429,-39.0254,3.8748,89.6259,0.00000000,0.00000000,0.00000000,
4.178483,0.0313,0.6604,0.7819,-0.0677,0.6145,-0.7224,-0.6336,0.6903,-0.0696,939.3820,-34.3525,-12.1687,-59.5737,536.0850,63.3429,-39.0254,3.8748,89.6259,0.00000000,0.00000000,0.00000000,
4.179870,0.0313,0.6604,0.7819,0.0483,0.5852,-0.1634,-0.6336,0.6903,-0.0696,939.3820,-34.3525,-12.1687,-59.5737,536.0850,63.3429,-39.0254,3.8748,89.6259,0.00000000,0.00000000,0.00000000,
4.180784,0.0313,0.6604,0.7819,0.0483,0.5852,-0.1634,-0.6336,0.6903,-0.0696,939.3820,-34.3525,-12.1687,-59.5737,536.0850,61.2937,-36.5227,1.6101,89.6259,0.00000000,0.00000000,0.00000000,
4.196586,0.0313,0.6604,0.7819,0.0483,0.5852,-0.1634,-0.6336,0.6903,-0.0696,939.3820,-32.1900,-16.1362,-64.2825,536.0850,61.2937,-36.5227,1.6101,89.6259,0.00000000,0.00000000,0.00000000,
4.203525,0.0313,0.6604,0.7819,0.0483,0.5852,-0.1634,-0.6336,0.6903,-0.0696,939.3809,-32.1900,-16.1362,-64.2825,536.0850,61.2937,-36.5227,1.6101,89.6259,0.00000000,0.00000000,0.00000000,
4.242483,0.0047,0.6264,0.9134,0.0483,0.5852,-0.1634,-0.6336,0.6903,-0.0696,939.3809,-32.1900,-16.1362,-64.2825,536.0850,61.2937,-36.5227,1.6101,89.6259,0.00000000,0.00000000,0.00000000,
4.244041,0.0047,0.6264,0.9134,0.0483,0.5852,-0.1634,-0.6336,0.6903,-0.0696,939.3756,-32.1900,-16.1362,-64.2825,536.0850,61.2937,-36.5227,1.6101,89.6259,0.00000000,0.00000000,0.00000000,
4.246278,0.0047,0.6264,0.9134,0.0483,0.5852,-0.1634,-0.3204,0.3259,0.0015,939.3756,-32.1900,-16.1362,-64.2825,536.0850,61.2937,-36.5227,1.6101,89.6259,0.00000000,0.00000000,0.00000000,
4.247959,0.0047,0.6264,0.9134,-0.0460,0.4306,1.0512,-0.3204,0.3259,0.0015,939.3756,-32.1900,-16.1362,-64.2825,536.0850,61.2937,-36.5227,1.6101,89.6259,0.00000000,0.00000000,0.00000000,
4.248735,0.0047,0.6264,0.9134,-0.0460,0.4306,1.0512,-0.3204,0.3259,0.0015,939.3756,-32.1900,-16.1362,-64.2825,536.0850,60.5143,-35.2742,0.5961,89.6259,0.00000000,0.00000000,0.00000000,
4.268541,0.0047,0.6264,0.9134,-0.0460,0.4306,1.0512,-0.3204,0.3259,0.0015,939.3756,-30.2275,-19.4087,-66.2487,536.0850,60.5143,-35.2742,0.5961,89.6259,0.00000000,0.00000000,0.00000000,
4.277943,0.0047,0.6264,0.9134,-0.0460,0.4306,1.0512,-0.3204,0.3259,0.0015,939.3756,-30.2275,-19.4087,-66.2487,484.1812,60.5143,-35.2742,0.5961,89.6259,0.00000000,0.00000000,0.00000000,
4.308997,0.0075,0.6314,0.7517,-0.0460,0.4306,1.0512,-0.3204,0.3259,0.0015,939.3756,-30.2275,-19.4087,-66.2487,484.1812,60.5143,-35.2742,0.5961,89.6259,0.00000000,0.00000000,0.00000000,
4.314012,0.0075,0.6314,0.7517,-0.0460,0.4306,1.0512,0.0380,-0.0554,0.0266,939.3756,-30.2275,-19.4087,-66.2487,484.1812,60.5143,-35.2742,0.5961,89.6259,0.00000000,0.00000000,0.00000000,
4.315097,0.0075,0.6314,0.7517,-0.0966,0.5102,-0.7477,0.0380,-0.0554,0.0266,939.3756,-30.2275,-19.4087,-66.2487,484.1812,60.5143,-35.2742,0.5961,89.6259,0.00000000,0.00000000,0.00000000,
4.315814,0.0075,0.6314,0.7517,-0.0966,0.5102,-0.7477,0.0380,-0.0554,0.0266,939.3756,-30.2275,-19.4087,-66.2487,484.1812,60.5368,-35.4278,0.8301,89.6259,0.00000000,0.00000000,0.00000000,
4.322909,0.0075,0.6314,0.7517,-0.0966,0.5102,-0.7477,0.0380,-0.0554,0.0266,939.3818,-30.2275,-19.4087,-66.2487,484.1812,60.5368,-35.4278,0.8301,89.6259,0.00000000,0.00000000,0.00000000,
4.337206,0.0075,0.6314,0.7517,-0.0966,0.5102,-0.7477,0.0380,-0.0554,0.0266,939.3818,-29.3987,-19.4762,-66.0112,484.1812,60.5368,-35.4278,0.8301,89.6259,0.00000000,0.00000000,0.00000000,
4.376499,0.0374,0.6176,0.7709,-0.0966,0.5102,-0.7477,0.0380,-0.0554,0.0266,939.3818,-29.3987,-19.4762,-66.0112,484.1812,60.5368,-35.4278,0.8301,89.6259,0.00000000,0.00000000,0.00000000,
4.381589,0.0374,0.6176,0.7709,-0.0966,0.5102,-0.7477,-0.0776,0.0560,0.0640,939.3818,-29.3987,-19.4762,-66.0112,484.1812,60.5368,-35.4278,0.8301,89.6259,0.00000000,0.00000000,0.00000000,
4.382618,0.0374,0.6176,0.7709,0.2733,0.3841,-0.4876,-0.0776,0.0560,0.0640,939.3818,-29.3987,-19.4762,-66.0112,484.1812,60.5368,-35.4278,0.8301,89.6259,0.00000000,0.00000000,0.00000000,
4.383399,0.0374,0.6176,0.7709,0.2733,0.3841,-0.4876,-0.0776,0.0560,0.0640,939.3818,-29.3987,-19.4762,-66.0112,484.1812,60.1900,-35.1299,0.7984,89.6259,0.00000000,0.00000000,0.00000000,
4.403328,0.0374,0.6176,0.7709,0.2733,0.3841,-0.4876,-0.0776,0.0560,0.0640,939.3990,-29.3987,-19.4762,-66.0112,484.1812,60.1900,-35.1299,0.7984,89.6259,0.00000000,0.00000000,0.00000000,
4.406373,0.0374,0.6176,0.7709,0.2733,0.3841,-0.4876,-0.0776,0.0560,0.0640,939.3990,-28.2125,-19.6213,-65.6762,484.1812,60.1900,-35.1299,0.7984,89.6259,0.00000000,0.00000000,0.00000000,
4.442850,0.0374,0.6176,0.7709,0.2733,0.3841,-0.4876,-0.0776,0.0560,0.0640,939.4111,-28.2125,-19.6213,-65.6762,484.1812,60.1900,-35.1299,0.7984,87.6534,0.00000000,0.00000000,0.00000000,
4.444418,0.0276,0.6176,0.7146,0.2733,0.3841,-0.4876,-0.0776,0.0560,0.0640,939.4111,-28.2125,-19.6213,-65.6762,484.1812,60.1900,-35.1299,0.7984,87.6534,0.00000000,0.00000000,0.00000000,
4.448561,0.0276,0.6176,0.7146,0.2733,0.3841,-0.4876,-0.2217,0.5763,-0.0426,939.4111,-28.2125,-19.6213,-65.6762,484.1812,60.1900,-35.1299,0.7984,87.6534,0.00000000,0.00000000,0.00000000,
4.450197,0.0276,0.6176,0.7146,0.4627,0.5046,-0.8809,-0.2217,0.5763,-0.0426,939.4111,-28.2125,-19.6213,-65.6762,484.1812,60.1900,-35.1299,0.7984,87.6534,0.00000000,0.00000000,0.00000000,
4.451150,0.0276,0.6176,0.7146,0.4627,0.5046,-0.8809,-0.2217,0.5763,-0.0426,939.4111,-28.2125,-19.6213,-65.6762,484.1812,59.0585,-34.2890,-1.1204,87.6534,0.00000000,0.00000000,0.00000000,
4.477599,0.0276,0.6176,0.7146,0.4627,0.5046,-0.8809,-0.2217,0.5763,-0.0426,939.4111,-26.3562,-20.3037,-66.3237,484.1812,59.0585,-34.2890,-1.1204,87.6534,0.00000000,0.00000000,0.00000000,
4.510004,-0.0192,0.6104,0.8618,0.4627,0.5046,-0.8809,-0.2217,0.5763,-0.0426,939.4111,-26.3562,-20.3037,-66.3237,484.1812,59.0585,-34.2890,-1.1204,87.6534,0.00000000,0.00000000,0.00000000,
4.515605,-0.0192,0.6104,0.8618,-0.0743,0.4139,0.3232,-0.2217,0.5763,-0.0426,939.4111,-26.3562,-20.3037,-66.3237,484.1812,59.0585,-34.2890,-1.1204,87.6534,0.00000000,0.00000000,0.00000000,
4.516599,-0.0192,0.6104,0.8618,-0.0743,0.4139,0.3232,-0.2217,0.5763,-0.0426,939.4111,-26.3562,-20.3037,-66.3237,484.1812,59.1478,-34.2787,-1.2062,87.6534,0.00000000,0.00000000,0.00000000,
4.517327,-0.0192,0.6104,0.8618,-0.0743,0.4139,0.3232,-0.0026,0.0047,-0.0325,939.4111,-26.3562,-20.3037,-66.3237,484.1812,59.1478,-34.2787,-1.2062,87.6534,0.00000000,0.00000000,0.00000000,
4.522259,-0.0192,0.6104,0.8618,-0.0743,0.4139,0.3232,-0.0026,0.0047,-0.0325,939.4946,-26.3562,-20.3037,-66.3237,484.1812,59.1478,-34.2787,-1.2062,87.6534,0.00000000,0.00000000,0.00000000,
4.546951,-0.0192,0.6104,0.8618,-0.0743,0.4139,0.3232,-0.0026,0.0047,-0.0325,939.4946,-25.4837,-20.4912,-67.1250,484.1812,59.1478,-34.2787,-1.2062,87.6534,0.00000000,0.00000000,0.00000000,
4.577385,-0.0074,0.6192,0.7763,-0.0743,0.4139,0.3232,-0.0026,0.0047,-0.0325,939.4946,-25.4837,-20.4912,-67.1250,484.1812,59.1478,-34.2787,-1.2062,87.6534,0.00000000,0.00000000,0.00000000,
4.581716,-0.0074,0.6192,0.7763,-0.0743,0.4139,0.3232,0.0142,-0.0423,-0.0345,939.4946,-25.4837,-20.4912,-67.1250,484.1812,59.1478,-34.2787,-1.2062,87.6534,0.00000000,0.00000000,0.00000000,
4.582909,-0.0074,0.6192,0.7763,0.1655,0.5582,-0.6013,0.0142,-0.0423,-0.0345,939.4946,-25.4837,-20.4912,-67.1250,484.1812,59.1478,-34.2787,-1.2062,87.6534,0.00000000,0.00000000,0.00000000,
4.583637,-0.0074,0.6192,0.7763,0.1655,0.5582,-0.6013,0.0142,-0.0423,-0.0345,939.4946,-25.4837,-20.4912,-67.1250,484.1812,59.3423,-34.3364,-1.1448,87.6534,0.00000000,0.00000000,0.00000000,
4.584983,-0.0074,0.6192,0.7763,0.1655,0.5582,-0.6013,0.0142,-0.0423,-0.0345,939.4946,-25.4837,-20.4912,-67.1250,410.5800,59.3423,-34.3364,-1.1448,87.6534,0.00000000,0.00000000,0.00000000,
4.602858,-0.0074,0.6192,0.7763,0.1655,0.5582,-0.6013,0.0142,-0.0423,-0.0345,939.3951,-25.4837,-20.4912,-67.1250,410.5800,59.3423,-34.3364,-1.1448,87.6534,0.00000000,0.00000000,0.00000000,
4.616930,-0.0074,0.6192,0.7763,0.1655,0.5582,-0.6013,0.0142,-0.0423,-0.0345,939.3951,-25.1650,-20.3175,-67.2075,410.5800,59.3423,-34.3364,-1.1448,87.6534,0.00000000,0.00000000,0.00000000,
4.642929,-0.0074,0.6192,0.7763,0.1655,0.5582,-0.6013,0.0142,-0.0423,-0.0345,939.3890,-25.1650,-20.3175,-67.2075,410.5800,59.3423,-34.3364,-1.1448,87.6534,0.00000000,0.00000000,0.00000000,
4.644233,-0.0093,0.6212,0.7810,0.1655,0.5582,-0.6013,0.0142,-0.0423,-0.0345,939.3890,-25.1650,-20.3175,-67.2075,410.5800,59.3423,-34.3364,-1.1448,87.6534,0.00000000,0.00000000,0.00000000,
4.649026,-0.0093,0.6212,0.7810,0.1655,0.5582,-0.6013,0.0140,-0.0470,-0.0408,939.3890,-25.1650,-20.3175,-67.2075,410.5800,59.3423,-34.3364,-1.1448,87.6534,0.00000000,0.00000000,0.00000000,
4.650265,-0.0093,0.6212,0.7810,0.0759,0.5163,-0.4078,0.0140,-0.0470,-0.0408,939.3890,-25.1650,-20.3175,-67.2075,410.5800,59.3423,-34.3364,-1.1448,87.6534,0.00000000,0.00000000,0.00000000,
4.651158,-0.0093,0.6212,0.7810,0.0759,0.5163,-0.4078,0.0140,-0.0470,-0.0408,939.3890,-25.1650,-20.3175,-67.2075,410.5800,59.5617,-34.3921,-1.0826,87.6534,0.00000000,0.00000000,0.00000000,
4.688853,-0.0093,0.6212,0.7810,0.0759,0.5163,-0.4078,0.0140,-0.0470,-0.0408,939.3890,-25.5262,-20.4587,-67.0425,410.5800,59.5617,-34.3921,-1.0826,87.6534,0.00000000,0.00000000,0.00000000,
4.711584,-0.0115,0.6239,0.7714,0.0759,0.5163,-0.4078,0.0140,-0.0470,-0.0408,939.3890,-25.5262,-20.4587,-67.0425,410.5800,59.5617,-34.3921,-1.0826,87.6534,0.00000000,0.00000000,0.00000000,
4.716352,-0.0115,0.6239,0.7714,0.0759,0.5163,-0.4078,0.0166,-0.0519,-0.0476,939.3890,-25.5262,-20.4587,-67.0425,410.5800,59.5617,-34.3921,-1.0826,87.6534,0.00000000,0.00000000,0.00000000,
4.717427,-0.0115,0.6239,0.7714,0.0644,0.5507,-0.5664,0.0166,-0.0519,-0.0476,939.3890,-25.5262,-20.4587,-67.0425,410.5800,59.5617,-34.3921,-1.0826,87.6534,0.00000000,0.00000000,0.00000000,
4.718242,-0.0115,0.6239,0.7714,0.0644,0.5507,-0.5664,0.0166,-0.0519,-0.0476,939.3890,-25.5262,-20.4587,-67.0425,410.5800,59.8150,-34.4582,-1.0202,87.6534,0.00000000,0.00000000,0.00000000,
4.722818,-0.0115,0.6239,0.7714,0.0644,0.5507,-0.5664,0.0166,-0.0519,-0.0476,939.4032,-25.5262,-20.4587,-67.0425,410.5800,59.8150,-34.4582,-1.0202,87.6534,0.00000000,0.00000000,0.00000000,
4.759122,-0.0115,0.6239,0.7714,0.0644,0.5507,-0.5664,0.0166,-0.0519,-0.0476,939.4032,-25.5212,-20.8500,-67.0987,410.5800,59.8150,-34.4582,-1.0202,90.6224,0.00000000,0.00000000,0.00000000,
4.778985,-0.0095,0.6326,0.7687,0.0644,0.5507,-0.5664,0.0166,-0.0519,-0.0476,939.4032,-25.5212,-20.8500,-67.0987,410.5800,59.8150,-34.4582,-1.0202,90.6224,0.00000000,0.00000000,0.00000000,
4.783262,-0.0095,0.6326,0.7687,0.0644,0.5507,-0.5664,0.0116,-0.0527,-0.0564,939.4032,-25.5212,-20.8500,-67.0987,410.5800,59.8150,-34.4582,-1.0202,90.6224,0.00000000,0.00000000,0.00000000,
4.784263,-0.0095,0.6326,0.7687,0.0859,0.6544,-0.4929,0.0116,-0.0527,-0.0564,939.4032,-25.5212,-20.8500,-67.0987,410.5800,59.8150,-34.4582,-1.0202,90.6224,0.00000000,0.00000000,0.00000000,
4.785116,-0.0095,0.6326,0.7687,0.0859,0.6544,-0.4929,0.0116,-0.0527,-0.0564,939.4032,-25.5212,-20.8500,-67.0987,410.5800,60.1029,-34.5054,-0.9743,90.6224,0.00000000,0.00000000,0.00000000,
4.803231,-0.0095,0.6326,0.7687,0.0859,0.6544,-0.4929,0.0116,-0.0527,-0.0564,939.3915,-25.5212,-20.8500,-67.0987,410.5800,60.1029,-34.5054,-0.9743,90.6224,0.00000000,0.00000000,0.00000000,
4.827559,-0.0095,0.6326,0.7687,0.0859,0.6544,-0.4929,0.0116,-0.0527,-0.0564,939.3915,-25.3713,-21.4875,-67.3150,410.5800,60.1029,-34.5054,-0.9743,90.6224,0.00000000,0.00000000,0.00000000,
4.842341,-0.0095,0.6326,0.7687,0.0859,0.6544,-0.4929,0.0116,-0.0527,-0.0564,939.4028,-25.3713,-21.4875,-67.3150,410.5800,60.1029,-34.5054,-0.9743,90.6224,0.00000000,0.00000000,0.00000000,
4.845705,-0.0092,0.6466,0.7679,0.0859,0.6544,-0.4929,0.0116,-0.0527,-0.0564,939.4028,-25.3713,-21.4875,-67.3150,410.5800,60.1029,-34.5054,-0.9743,90.6224,0.00000000,0.00000000,0.00000000,
4.850546,-0.0092,0.6466,0.7679,0.0859,0.6544,-0.4929,0.0089,-0.0556,-0.0643,939.4028,-25.3713,-21.4875,-67.3150,410.5800,60.1029,-34.5054,-0.9743,90.6224,0.00000000,0.00000000,0.00000000,
4.851497,-0.0092,0.6466,0.7679,0.0550,0.7593,-0.5530,0.0089,-0.0556,-0.0643,939.4028,-25.3713,-21.4875,-67.3150,410.5800,60.1029,-34.5054,-0.9743,90.6224,0.00000000,0.00000000,0.00000000,
4.852190,-0.0092,0.6466,0.7679,0.0550,0.7593,-0.5530,0.0089,-0.0556,-0.0643,939.4028,-25.3713,-21.4875,-67.3150,410.5800,60.4137,-34.5428,-0.9370,90.6224,0.00000000,0.00000000,0.00000000,
4.898125,-0.0092,0.6466,0.7679,0.0550,0.7593,-0.5530,0.0089,-0.0556,-0.0643,939.4028,-25.0250,-21.0650,-67.1413,410.5800,60.4137,-34.5428,-0.9370,90.6224,0.00000000,0.00000000,0.00000000,
4.913881,-0.0082,0.6457,0.7739,0.0550,0.7593,-0.5530,0.0089,-0.0556,-0.0643,939.4028,-25.0250,-21.0650,-67.1413,410.5800,60.4137,-34.5428,-0.9370,90.6224,0.00000000,0.00000000,0.00000000,
4.917809,-0.0082,0.6457,0.7739,0.0550,0.7593,-0.5530,0.0096,-0.0646,-0.0745,939.4028,-25.0250,-21.0650,-67.1413,410.5800,60.4137,-34.5428,-0.9370,90.6224,0.00000000,0.00000000,0.00000000,
4.918654,-0.0082,0.6457,0.7739,0.0874,0.7500,-0.4828,0.0096,-0.0646,-0.0745,939.4028,-25.0250,-21.0650,-67.1413,410.5800,60.4137,-34.5428,-0.9370,90.6224,0.00000000,0.00000000,0.00000000,
4.919379,-0.0082,0.6457,0.7739,0.0874,0.7500,-0.4828,0.0096,-0.0646,-0.0745,939.4028,-25.0250,-21.0650,-67.1413,410.5800,60.7660,-34.5824,-0.8931,90.6224,0.00000000,0.00000000,0.00000000,
4.922594,-0.0082,0.6457,0.7739,0.0874,0.7500,-0.4828,0.0096,-0.0646,-0.0745,939.4188,-25.0250,-21.0650,-67.1413,410.5800,60.7660,-34.5824,-0.8931,90.6224,0.00000000,0.00000000,0.00000000,
4.968624,-0.0082,0.6457,0.7739,0.0874,0.7500,-0.4828,0.0096,-0.0646,-0.0745,939.4188,-25.1650,-21.3350,-66.8862,410.5800,60.7660,-34.5824,-0.8931,90.6224,0.00000000,0.00000000,0.00000000,
4.980573,-0.0048,0.6458,0.7652,0.0874,0.7500,-0.4828,0.0096,-0.0646,-0.0745,939.4188,-25.1650,-21.3350,-66.8862,410.5800,60.7660,-34.5824,-0.8931,90.6224,0.00000000,0.00000000,0.00000000,
4.985070,-0.0048,0.6458,0.7652,0.0920,0.7210,-0.5570,0.0096,-0.0646,-0.0745,939.4188,-25.1650,-21.3350,-66.8862,410.5800,60.7660,-34.5824,-0.8931,90.6224,0.00000000,0.00000000,0.00000000,
4.985907,-0.0048,0.6458,0.7652,0.0920,0.7210,-0.5570,0.0082,-0.0762,-0.0867,939.4188,-25.1650,-21.3350,-66.8862,410.5800,60.7660,-34.5824,-0.8931,90.6224,0.00000000,0.00000000,0.00000000,
4.986657,-0.0048,0.6458,0.7652,0.0920,0.7210,-0.5570,0.0082,-0.0762,-0.0867,939.4188,-25.1650,-21.3350,-66.8862,410.5800,61.1573,-34.6164,-0.8397,90.6224,0.00000000,0.00000000,0.00000000,
5.002554,-0.0048,0.6458,0.7652,0.0920,0.7210,-0.5570,0.0082,-0.0762,-0.0867,939.3798,-25.1650,-21.3350,-66.8862,410.5800,61.1573,-34.6164,-0.8397,90.6224,0.00000000,0.00000000,0.00000000,
5.038375,-0.0048,0.6458,0.7652,0.0920,0.7210,-0.5570,0.0082,-0.0762,-0.0867,939.3798,-24.7525,-21.1475,-67.0100,410.5800,61.1573,-34.6164,-0.8397,90.6224,0.00000000,0.00000000,0.00000000,
5.043342,-0.0048,0.6458,0.7652,0.0920,0.7210,-0.5570,0.0082,-0.0762,-0.0867,939.3890,-24.7525,-21.1475,-67.0100,410.5800,61.1573,-34.6164,-0.8397,90.6224,0.00000000,0.00000000,0.00000000,
5.048056,0.0002,0.6468,0.7689,0.0920,0.7210,-0.5570,0.0082,-0.0762,-0.0867,939.3890,-24.7525,-21.1475,-67.0100,410.5800,61.1573,-34.6164,-0.8397,90.6224,0.00000000,0.00000000,0.00000000,
5.052002,0.0002,0.6468,0.7689,0.0920,0.7210,-0.5570,0.0093,-0.0877,-0.0985,939.3890,-24.7525,-21.1475,-67.0100,410.5800,61.1573,-34.6164,-0.8397,87.9253,0.00000000,0.00000000,0.00000000,
5.052993,0.0002,0.6468,0.7689,0.1384,0.7553,-0.5296,0.0093,-0.0877,-0.0985,939.3890,-24.7525,-21.1475,-67.0100,410.5800,61.1573,-34.6164,-0.8397,87.9253,0.00000000,0.00000000,0.00000000,
5.053717,0.0002,0.6468,0.7689,0.1384,0.7553,-0.5296,0.0093,-0.0877,-0.0985,939.3890,-24.7525,-21.1475,-67.0100,410.5800,61.4845,-34.6544,-0.7757,87.9253,0.00000000,0.00000000,0.00000000,
5.108422,0.0002,0.6468,0.7689,0.1384,0.7553,-0.5296,0.0093,-0.0877,-0.0985,939.3890,-25.0712,-20.8475,-66.7237,410.5800,61.4845,-34.6544,-0.7757,87.9253,0.00000000,0.00000000,0.00000000,
5.114742,0.0045,0.6511,0.7547,0.1384,0.7553,-0.5296,0.0093,-0.0877,-0.0985,939.3890,-25.0712,-20.8475,-66.7237,410.5800,61.4845,-34.6544,-0.7757,87.9253,0.00000000,0.00000000,0.00000000,
5.119210,0.0045,0.6511,0.7547,0.1384,0.7553,-0.5296,0.0127,-0.0947,-0.1093,939.3890,-25.0712,-20.8475,-66.7237,410.5800,61.4845,-34.6544,-0.7757,87.9253,0.00000000,0.00000000,0.00000000,
5.120252,0.0045,0.6511,0.7547,0.1918,0.7678,-0.6738,0.0127,-0.0947,-0.1093,939.3890,-25.0712,-20.8475,-66.7237,410.5800,61.4845,-34.6544,-0.7757,87.9253,0.00000000,0.00000000,0.00000000,
5.121079,0.0045,0.6511,0.7547,0.1918,0.7678,-0.6738,0.0127,-0.0947,-0.1093,939.3890,-25.0712,-20.8475,-66.7237,410.5800,61.6670,-34.7064,-0.7127,87.9253,0.00000000,0.00000000,0.00000000,
5.122101,0.0045,0.6511,0.7547,0.1918,0.7678,-0.6738,0.0127,-0.0947,-0.1093,939.4094,-25.0712,-20.8475,-66.7237,410.5800,61.6670,-34.7064,-0.7127,87.9253,0.00000000,0.00000000,0.00000000,
5.180945,0.0045,0.6511,0.7547,0.1918,0.7678,-0.6738,0.0127,-0.0947,-0.1093,939.4094,-24.6663,-20.6975,-66.8012,410.5800,61.6670,-34.7064,-0.7127,87.9253,0.00000000,0.00000000,0.00000000,
5.183010,0.0143,0.6515,0.7540,0.1918,0.7678,-0.6738,0.0127,-0.0947,-0.1093,939.4094,-24.6663,-20.6975,-66.8012,410.5800,61.6670,-34.7064,-0.7127,87.9253,0.00000000,0.00000000,0.00000000,
5.186538,0.0143,0.6515,0.7540,0.1918,0.7678,-0.6738,0.0170,-0.1016,-0.1203,939.4094,-24.6663,-20.6975,-66.8012,410.5800,61.6670,-34.7064,-0.7127,87.9253,0.00000000,0.00000000,0.00000000,
5.187489,0.0143,0.6515,0.7540,0.2343,0.7832,-0.6304,0.0170,-0.1016,-0.1203,939.4094,-24.6663,-20.6975,-66.8012,410.5800,61.6670,-34.7064,-0.7127,87.9253,0.00000000,0.00000000,0.00000000,
5.188560,0.0143,0.6515,0.7540,0.2343,0.7832,-0.6304,0.0170,-0.1016,-0.1203,939.4094,-24.6663,-20.6975,-66.8012,410.5800,61.7442,-34.7744,-0.6525,87.9253,0.00000000,0.00000000,0.00000000,
5.203095,0.0143,0.6515,0.7540,0.2343,0.7832,-0.6304,0.0170,-0.1016,-0.1203,939.4003,-24.6663,-20.6975,-66.8012,410.5800,61.7442,-34.7744,-0.6525,87.9253,0.00000000,0.00000000,0.00000000,
5.242934,0.0143,0.6515,0.7540,0.2343,0.7832,-0.6304,0.0170,-0.1016,-0.1203,939.3975,-24.6663,-20.6975,-66.8012,410.5800,61.7442,-34.7744,-0.6525,87.9253,0.00000000,0.00000000,0.00000000,
5.250444,0.0143,0.6515,0.7540,0.2343,0.7832,-0.6304,0.0170,-0.1016,-0.1203,939.3975,-25.0250,-21.3275,-66.0912,410.5800,61.7442,-34.7744,-0.6525,87.9253,0.00000000,0.00000000,0.00000000,
5.251666,0.0179,0.6536,0.7602,0.2343,0.7832,-0.6304,0.0170,-0.1016,-0.1203,939.3975,-25.0250,-21.3275,-66.0912,410.5800,61.7442,-34.7744,-0.6525,87.9253,0.00000000,0.00000000,0.00000000,
5.253738,0.0179,0.6536,0.7602,0.2343,0.7832,-0.6304,0.0157,-0.1129,-0.1322,939.3975,-25.0250,-21.3275,-66.0912,410.5800,61.7442,-34.7744,-0.6525,87.9253,0.00000000,0.00000000,0.00000000,
5.254616,0.0179,0.6536,0.7602,0.2984,0.7953,-0.6004,0.0157,-0.1129,-0.1322,939.3975,-25.0250,-21.3275,-66.0912,410.5800,61.7442,-34.7744,-0.6525,87.9253,0.00000000,0.00000000,0.00000000,
5.255418,0.0179,0.6536,0.7602,0.2984,0.7953,-0.6004,0.0157,-0.1129,-0.1322,939.3975,-25.0250,-21.3275,-66.0912,410.5800,62.2405,-34.8378,-0.5831,87.9253,0.00000000,0.00000000,0.00000000,
5.307026,0.0179,0.6536,0.7602,0.2984,0.7953,-0.6004,0.0157,-0.1129,-0.1322,939.3975,-25.0250,-21.3275,-66.0912,381.2362,62.2405,-34.8378,-0.5831,87.9253,0.00000000,0.00000000,0.00000000,
5.316903,0.0278,0.6583,0.7529,0.2984,0.7953,-0.6004,0.0157,-0.1129,-0.1322,939.3975,-25.0250,-21.3275,-66.0912,381.2362,62.2405,-34.8378,-0.5831,87.9253,0.00000000,0.00000000,0.00000000,
5.318595,0.0278,0.6583,0.7529,0.2984,0.7953,-0.6004,0.0157,-0.1129,-0.1322,939.3975,-24.3475,-21.0938,-65.9275,381.2362,62.2405,-34.8378,-0.5831,87.9253,0.00000000,0.00000000,0.00000000,
5.320745,0.0278,0.6583,0.7529,0.2984,0.7953,-0.6004,0.0073,-0.1240,-0.1432,939.3975,-24.3475,-21.0938,-65.9275,381.2362,62.2405,-34.8378,-0.5831,87.9253,0.00000000,0.00000000,0.00000000,
5.321576,0.0278,0.6583,0.7529,0.3626,0.8404,-0.6891,0.0073,-0.1240,-0.1432,939.3975,-24.3475,-21.0938,-65.9275,381.2362,62.2405,-34.8378,-0.5831,87.9253,0.00000000,0.00000000,0.00000000,
5.322531,0.0278,0.6583,0.7529,0.3626,0.8404,-0.6891,0.0073,-0.1240,-0.1432,939.3975,-24.3475,-21.0938,-65.9275,381.2362,62.2955,-34.8703,-0.5030,87.9253,0.00000000,0.00000000,0.00000000,
5.323277,0.0278,0.6583,0.7529,0.3626,0.8404,-0.6891,0.0073,-0.1240,-0.1432,939.3903,-24.3475,-21.0938,-65.9275,381.2362,62.2955,-34.8703,-0.5030,87.9253,0.00000000,0.00000000,0.00000000,
5.383567,0.0182,0.6560,0.7528,0.3626,0.8404,-0.6891,0.0073,-0.1240,-0.1432,939.3903,-24.3475,-21.0938,-65.9275,381.2362,62.2955,-34.8703,-0.5030,86.3369,0.00000000,0.00000000,0.00000000,
5.388386,0.0182,0.6560,0.7528,0.3626,0.8404,-0.6891,0.0037,-0.1322,-0.1519,939.3903,-24.3475,-21.0938,-65.9275,381.2362,62.2955,-34.8703,-0.5030,86.3369,0.00000000,0.00000000,0.00000000,
5.389255,0.0182,0.6560,0.7528,0.3626,0.8404,-0.6891,0.0037,-0.1322,-0.1519,939.3903,-25.0462,-21.5312,-65.7862,381.2362,62.2955,-34.8703,-0.5030,86.3369,0.00000000,0.00000000,0.00000000,
5.390216,0.0182,0.6560,0.7528,0.2454,0.7823,-0.6414,0.0037,-0.1322,-0.1519,939.3903,-25.0462,-21.5312,-65.7862,381.2362,62.2955,-34.8703,-0.5030,86.3369,0.00000000,0.00000000,0.00000000,
5.391134,0.0182,0.6560,0.7528,0.2454,0.7823,-0.6414,0.0037,-0.1322,-0.1519,939.3903,-25.0462,-21.5312,-65.7862,381.2362,62.7934,-34.8890,-0.4168,86.3369,0.00000000,0.00000000,0.00000000,
5.403550,0.0182,0.6560,0.7528,0.2454,0.7823,-0.6414,0.0037,-0.1322,-0.1519,939.3884,-25.0462,-21.5312,-65.7862,381.2362,62.7934,-34.8890,-0.4168,86.3369,0.00000000,0.00000000,0.00000000,
5.442705,0.0182,0.6560,0.7528,0.2454,0.7823,-0.6414,0.0037,-0.1322,-0.1519,939.3786,-25.0462,-21.5312,-65.7862,381.2362,62.7934,-34.8890,-0.4168,86.3369,0.00000000,0.00000000,0.00000000,
5.451577,0.0181,0.6461,0.7561,0.2454,0.7823,-0.6414,0.0037,-0.1322,-0.1519,939.3786,-25.0462,-21.5312,-65.7862,381.2362,62.7934,-34.8890,-0.4168,86.3369,0.00000000,0.00000000,0.00000000,
5.455177,0.0181,0.6461,0.7561,0.2454,0.7823,-0.6414,0.0005,-0.1358,-0.1576,939.3786,-25.0462,-21.5312,-65.7862,381.2362,62.7934,-34.8890,-0.4168,86.3369,0.00000000,0.00000000,0.00000000,
5.455987,0.0181,0.6461,0.7561,0.2427,0.6912,-0.6158,0.0005,-0.1358,-0.1576,939.3786,-25.0462,-21.5312,-65.7862,381.2362,62.7934,-34.8890,-0.4168,86.3369,0.00000000,0.00000000,0.00000000,
5.456763,0.0181,0.6461,0.7561,0.2427,0.6912,-0.6158,0.0005,-0.1358,-0.1576,939.3786,-25.0462,-21.5312,-65.7862,381.2362,63.0035,-34.8956,-0.3322,86.3369,0.00000000,0.00000000,0.00000000,
5.458840,0.0181,0.6461,0.7561,0.2427,0.6912,-0.6158,0.0005,-0.1358,-0.1576,939.3786,-24.4250,-21.9912,-65.9087,381.2362,63.0035,-34.8956,-0.3322,86.3369,0.00000000,0.00000000,0.00000000,
5.514957,0.0181,0.6461,0.7561,0.2427,0.6912,-0.6158,0.0005,-0.1358,-0.1576,939.3786,-24.4250,-21.9912,-65.9087,342.0587,63.0035,-34.8956,-0.3322,86.3369,0.00000000,0.00000000,0.00000000,
5.517627,0.0181,0.6501,0.7487,0.2427,0.6912,-0.6158,0.0005,-0.1358,-0.1576,939.3786,-24.4250,-21.9912,-65.9087,342.0587,63.0035,-34.8956,-0.3322,86.3369,0.00000000,0.00000000,0.00000000,
5.522746,0.0181,0.6501,0.7487,0.2427,0.6912,-0.6158,0.0005,-0.1358,-0.1576,939.3926,-24.4250,-21.9912,-65.9087,342.0587,63.0035,-34.8956,-0.3322,86.3369,0.00000000,0.00000000,0.00000000,
5.523562,0.0181,0.6501,0.7487,0.2427,0.6912,-0.6158,-0.0067,-0.1348,-0.1648,939.3926,-24.4250,-21.9912,-65.9087,342.0587,63.0035,-34.8956,-0.3322,86.3369,0.00000000,0.00000000,0.00000000,
5.524436,0.0181,0.6501,0.7487,0.2321,0.7557,-0.6921,-0.0067,-0.1348,-0.1648,939.3926,-24.4250,-21.9912,-65.9087,342.0587,63.0035,-34.8956,-0.3322,86.3369,0.00000000,0.00000000,0.00000000,
5.525409,0.0181,0.6501,0.7487,0.2321,0.7557,-0.6921,-0.0067,-0.1348,-0.1648,939.3926,-24.4250,-21.9912,-65.9087,342.0587,63.2816,-34.8766,-0.2663,86.3369,0.00000000,0.00000000,0.00000000,
5.529148,0.0181,0.6501,0.7487,0.2321,0.7557,-0.6921,-0.0067,-0.1348,-0.1648,939.3926,-24.4087,-22.2463,-65.7075,342.0587,63.2816,-34.8766,-0.2663,86.3369,0.00000000,0.00000000,0.00000000,
5.585306,0.0315,0.6583,0.7568,0.2321,0.7557,-0.6921,-0.0067,-0.1348,-0.1648,939.3926,-24.4087,-22.2463,-65.7075,342.0587,63.2816,-34.8766,-0.2663,86.3369,0.00000000,0.00000000,0.00000000,
5.589765,0.0315,0.6583,0.7568,0.2321,0.7557,-0.6921,-0.0009,-0.1420,-0.1713,939.3926,-24.4087,-22.2463,-65.7075,342.0587,63.2816,-34.8766,-0.2663,86.3369,0.00000000,0.00000000,0.00000000,
5.590791,0.0315,0.6583,0.7568,0.3523,0.8433,-0.6601,-0.0009,-0.1420,-0.1713,939.3926,-24.4087,-22.2463,-65.7075,342.0587,63.2816,-34.8766,-0.2663,86.3369,0.00000000,0.00000000,0.00000000,
5.591645,0.0315,0.6583,0.7568,0.3523,0.8433,-0.6601,-0.0009,-0.1420,-0.1713,939.3926,-24.4087,-22.2463,-65.7075,342.0587,63.5864,-34.8813,-0.1912,86.3369,0.00000000,0.00000000,0.00000000,
5.599471,0.0315,0.6583,0.7568,0.3523,0.8433,-0.6601,-0.0009,-0.1420,-0.1713,939.3926,-24.2325,-22.4087,-65.5500,342.0587,63.5864,-34.8813,-0.1912,86.3369,0.00000000,0.00000000,0.00000000,
5.602140,0.0315,0.6583,0.7568,0.3523,0.8433,-0.6601,-0.0009,-0.1420,-0.1713,939.3839,-24.2325,-22.4087,-65.5500,342.0587,63.5864,-34.8813,-0.1912,86.3369,0.00000000,0.00000000,0.00000000,
5.642940,0.0315,0.6583,0.7568,0.3523,0.8433,-0.6601,-0.0009,-0.1420,-0.1713,939.3913,-24.2325,-22.4087,-65.5500,342.0587,63.5864,-34.8813,-0.1912,91.1359,0.00000000,0.00000000,0.00000000,
5.652412,0.0378,0.6642,0.7510,0.3523,0.8433,-0.6601,-0.0009,-0.1420,-0.1713,939.3913,-24.2325,-22.4087,-65.5500,342.0587,63.5864,-34.8813,-0.1912,91.1359,0.00000000,0.00000000,0.00000000,
5.656813,0.0378,0.6642,0.7510,0.3523,0.8433,-0.6601,0.0041,-0.1561,-0.1805,939.3913,-24.2325,-22.4087,-65.5500,342.0587,63.5864,-34.8813,-0.1912,91.1359,0.00000000,0.00000000,0.00000000,
5.657858,0.0378,0.6642,0.7510,0.3916,0.8838,-0.6814,0.0041,-0.1561,-0.1805,939.3913,-24.2325,-22.4087,-65.5500,342.0587,63.5864,-34.8813,-0.1912,91.1359,0.00000000,0.00000000,0.00000000,
5.658830,0.0378,0.6642,0.7510,0.3916,0.8838,-0.6814,0.0041,-0.1561,-0.1805,939.3913,-24.2325,-22.4087,-65.5500,342.0587,63.8866,-34.9072,-0.0920,91.1359,0.00000000,0.00000000,0.00000000,
5.669615,0.0378,0.6642,0.7510,0.3916,0.8838,-0.6814,0.0041,-0.1561,-0.1805,939.3913,-23.8525,-22.8587,-65.7000,342.0587,63.8866,-34.9072,-0.0920,91.1359,0.00000000,0.00000000,0.00000000,
5.721124,0.0477,0.6632,0.7469,0.3916,0.8838,-0.6814,0.0041,-0.1561,-0.1805,939.3913,-23.8525,-22.8587,-65.7000,342.0587,63.8866,-34.9072,-0.0920,91.1359,0.00000000,0.00000000,0.00000000,
5.722906,0.0477,0.6632,0.7469,0.3916,0.8838,-0.6814,0.0041,-0.1561,-0.1805,939.3913,-23.8525,-22.8587,-65.7000,433.7937,63.8866,-34.9072,-0.0920,91.1359,0.00000000,0.00000000,0.00000000,
5.723950,0.0477,0.6632,0.7469,0.3916,0.8838,-0.6814,0.0041,-0.1561,-0.1805,939.3992,-23.8525,-22.8587,-65.7000,433.7937,63.8866,-34.9072,-0.0920,91.1359,0.00000000,0.00000000,0.00000000,
5.724869,0.0477,0.6632,0.7469,0.3916,0.8838,-0.6814,0.0012,-0.1704,-0.1944,939.3992,-23.8525,-22.8587,-65.7000,433.7937,63.8866,-34.9072,-0.0920,91.1359,0.00000000,0.00000000,0.00000000,
5.727810,0.0477,0.6632,0.7469,0.4672,0.8525,-0.6406,0.0012,-0.1704,-0.1944,939.3992,-23.8525,-22.8587,-65.7000,433.7937,63.8866,-34.9072,-0.0920,91.1359,0.00000000,0.00000000,0.00000000,
5.729042,0.0477,0.6632,0.7469,0.4672,0.8525,-0.6406,0.0012,-0.1704,-0.1944,939.3992,-23.8525,-22.8587,-65.7000,433.7937,64.1103,-34.9235,0.0224,91.1359,0.00000000,0.00000000,0.00000000,
5.739951,0.0477,0.6632,0.7469,0.4672,0.8525,-0.6406,0.0012,-0.1704,-0.1944,939.3992,-23.1175,-23.5337,-65.8525,433.7937,64.1103,-34.9235,0.0224,91.1359,0.00000000,0.00000000,0.00000000,
5.786711,0.0450,0.6726,0.7428,0.4672,0.8525,-0.6406,0.0012,-0.1704,-0.1944,939.3992,-23.1175,-23.5337,-65.8525,433.7937,64.1103,-34.9235,0.0224,91.1359,0.00000000,0.00000000,0.00000000,
5.791215,0.0450,0.6726,0.7428,0.4672,0.8525,-0.6406,-0.0015,-0.1836,-0.2059,939.3992,-23.1175,-23.5337,-65.8525,433.7937,64.1103,-34.9235,0.0224,91.1359,0.00000000,0.00000000,0.00000000,
5.792027,0.0450,0.6726,0.7428,0.4218,0.9529,-0.8089,-0.0015,-0.1836,-0.2059,939.3992,-23.1175,-23.5337,-65.8525,433.7937,64.1103,-34.9235,0.0224,91.1359,0.00000000,0.00000000,0.00000000,
5.792789,0.0450,0.6726,0.7428,0.4218,0.9529,-0.8089,-0.0015,-0.1836,-0.2059,939.3992,-23.1175,-23.5337,-65.8525,433.7937,64.3548,-34.9332,0.1527,91.1359,0.00000000,0.00000000,0.00000000,
5.802520,0.0450,0.6726,0.7428,0.4218,0.9529,-0.8089,-0.0015,-0.1836,-0.2059,939.4009,-23.1175,-23.5337,-65.8525,433.7937,64.3548,-34.9332,0.1527,91.1359,0.00000000,0.00000000,0.00000000,
5.812440,0.0450,0.6726,0.7428,0.4218,0.9529,-0.8089,-0.0015,-0.1836,-0.2059,939.4009,-22.6062,-23.3438,-65.5050,433.7937,64.3548,-34.9332,0.1527,91.1359,0.00000000,0.00000000,0.00000000,
5.823067,0.0450,0.6726,0.7428,0.4218,0.9529,-0.8089,-0.0015,-0.1836,-0.2059,939.4009,-22.6062,-23.3438,-65.5050,487.9887,64.3548,-34.9332,0.1527,91.1359,0.00000000,0.00000000,0.00000000,
5.843842,0.0450,0.6726,0.7428,0.4218,0.9529,-0.8089,-0.0015,-0.1836,-0.2059,939.4136,-22.6062,-23.3438,-65.5050,487.9887,64.3548,-34.9332,0.1527,91.1359,0.00000000,0.00000000,0.00000000,
5.854244,0.0554,0.6718,0.7416,0.4218,0.9529,-0.8089,-0.0015,-0.1836,-0.2059,939.4136,-22.6062,-23.3438,-65.5050,487.9887,64.3548,-34.9332,0.1527,91.1359,0.00000000,0.00000000,0.00000000,
5.858823,0.0554,0.6718,0.7416,0.4218,0.9529,-0.8089,-0.0058,-0.1904,-0.2153,939.4136,-22.6062,-23.3438,-65.5050,487.9887,64.3548,-34.9332,0.1527,91.1359,0.00000000,0.00000000,0.00000000,
5.859694,0.0554,0.6718,0.7416,0.5080,0.9480,-0.7365,-0.0058,-0.1904,-0.2153,939.4136,-22.6062,-23.3438,-65.5050,487.9887,64.3548,-34.9332,0.1527,91.1359,0.00000000,0.00000000,0.00000000,
5.860616,0.0554,0.6718,0.7416,0.5080,0.9480,-0.7365,-0.0058,-0.1904,-0.2153,939.4136,-22.6062,-23.3438,-65.5050,487.9887,64.7397,-34.9287,0.2843,91.1359,0.00000000,0.00000000,0.00000000,
5.880810,0.0554,0.6718,0.7416,0.5080,0.9480,-0.7365,-0.0058,-0.1904,-0.2153,939.4136,-22.1700,-23.8475,-65.1425,487.9887,64.7397,-34.9287,0.2843,91.1359,0.00000000,0.00000000,0.00000000,
5.921288,0.0666,0.6760,0.7482,0.5080,0.9480,-0.7365,-0.0058,-0.1904,-0.2153,939.4136,-22.1700,-23.8475,-65.1425,487.9887,64.7397,-34.9287,0.2843,91.1359,0.00000000,0.00000000,0.00000000,
5.922827,0.0666,0.6760,0.7482,0.5080,0.9480,-0.7365,-0.0058,-0.1904,-0.2153,939.4058,-22.1700,-23.8475,-65.1425,487.9887,64.7397,-34.9287,0.2843,91.1359,0.00000000,0.00000000,0.00000000,
5.929852,0.0666,0.6760,0.7482,0.5080,0.9480,-0.7365,-0.0231,-0.1865,-0.2294,939.4058,-22.1700,-23.8475,-65.1425,487.9887,64.7397,-34.9287,0.2843,91.1359,0.00000000,0.00000000,0.00000000,
5.930893,0.0666,0.6760,0.7482,0.6024,1.0050,-0.7105,-0.0231,-0.1865,-0.2294,939.4058,-22.1700,-23.8475,-65.1425,487.9887,64.7397,-34.9287,0.2843,91.1359,0.00000000,0.00000000,0.00000000,
5.931667,0.0666,0.6760,0.7482,0.6024,1.0050,-0.7105,-0.0231,-0.1865,-0.2294,939.4058,-22.1700,-23.8475,-65.1425,487.9887,65.0449,-34.8608,0.3735,91.1359,0.00000000,0.00000000,0.00000000,
5.951626,0.0666,0.6760,0.7482,0.6024,1.0050,-0.7105,-0.0231,-0.1865,-0.2294,939.4058,-21.9263,-23.5800,-65.2500,487.9887,65.0449,-34.8608,0.3735,89.6063,0.00000000,0.00000000,0.00000000,
5.988730,0.0653,0.6772,0.7485,0.6024,1.0050,-0.7105,-0.0231,-0.1865,-0.2294,939.4058,-21.9263,-23.5800,-65.2500,487.9887,65.0449,-34.8608,0.3735,89.6063,0.00000000,0.00000000,0.00000000,
5.992809,0.0653,0.6772,0.7485,0.6024,1.0050,-0.7105,-0.0267,-0.1836,-0.2454,939.4058,-21.9263,-23.5800,-65.2500,487.9887,65.0449,-34.8608,0.3735,89.6063,0.00000000,0.00000000,0.00000000,
5.993608,0.0653,0.6772,0.7485,0.5661,1.0367,-0.6992,-0.0267,-0.1836,-0.2454,939.4058,-21.9263,-23.5800,-65.2500,487.9887,65.0449,-34.8608,0.3735,89.6063,0.00000000,0.00000000,0.00000000,
5.994482,0.0653,0.6772,0.7485,0.5661,1.0367,-0.6992,-0.0267,-0.1836,-0.2454,939.4058,-21.9263,-23.5800,-65.2500,487.9887,65.3868,-34.7805,0.4195,89.6063,0.00000000,0.00000000,0.00000000,
6.002790,0.0653,0.6772,0.7485,0.5661,1.0367,-0.6992,-0.0267,-0.1836,-0.2454,939.4070,-21.9263,-23.5800,-65.2500,487.9887,65.3868,-34.7805,0.4195,89.6063,0.00000000,0.00000000,0.00000000,
6.020851,0.0653,0.6772,0.7485,0.5661,1.0367,-0.6992,-0.0267,-0.1836,-0.2454,939.4070,-21.5987,-24.0250,-65.4425,487.9887,65.3868,-34.7805,0.4195,89.6063,0.00000000,0.00000000,0.00000000,
6.042465,0.0653,0.6772,0.7485,0.5661,1.0367,-0.6992,-0.0267,-0.1836,-0.2454,939.3873,-21.5987,-24.0250,-65.4425,487.9887,65.3868,-34.7805,0.4195,89.6063,0.00000000,0.00000000,0.00000000,
6.056354,0.0617,0.6688,0.7530,0.5661,1.0367,-0.6992,-0.0267,-0.1836,-0.2454,939.3873,-21.5987,-24.0250,-65.4425,487.9887,65.3868,-34.7805,0.4195,89.6063,0.00000000,0.00000000,0.00000000,
6.060562,0.0617,0.6688,0.7530,0.5661,1.0367,-0.6992,-0.0234,-0.1854,-0.2610,939.3873,-21.5987,-24.0250,-65.4425,487.9887,65.3868,-34.7805,0.4195,89.6063,0.00000000,0.00000000,0.00000000,
6.061689,0.0617,0.6688,0.7530,0.5261,0.9261,-0.6656,-0.0234,-0.1854,-0.2610,939.3873,-21.5987,-24.0250,-65.4425,487.9887,65.3868,-34.7805,0.4195,89.6063,0.00000000,0.00000000,0.00000000,
6.062469,0.0617,0.6688,0.7530,0.5261,0.9261,-0.6656,-0.0234,-0.1854,-0.2610,939.3873,-21.5987,-24.0250,-65.4425,487.9887,65.8990,-34.7136,0.4379,89.6063,0.00000000,0.00000000,0.00000000,
6.092452,0.0617,0.6688,0.7530,0.5261,0.9261,-0.6656,-0.0234,-0.1854,-0.2610,939.3873,-21.5025,-24.6862,-64.9125,487.9887,65.8990,-34.7136,0.4379,89.6063,0.00000000,0.00000000,0.00000000,
6.124100,0.0617,0.6688,0.7530,0.5261,0.9261,-0.6656,-0.0234,-0.1854,-0.2610,939.3951,-21.5025,-24.6862,-64.9125,487.9887,65.8990,-34.7136,0.4379,89.6063,0.00000000,0.00000000,0.00000000,
6.125367,0.0552,0.6528,0.7742,0.5261,0.9261,-0.6656,-0.0234,-0.1854,-0.2610,939.3951,-21.5025,-24.6862,-64.9125,487.9887,65.8990,-34.7136,0.4379,89.6063,0.00000000,0.00000000,0.00000000,
6.127409,0.0552,0.6528,0.7742,0.5261,0.9261,-0.6656,-0.0031,-0.1907,-0.2740,939.3951,-21.5025,-24.6862,-64.9125,487.9887,65.8990,-34.7136,0.4379,89.6063,0.00000000,0.00000000,0.00000000,
6.130001,0.0552,0.6528,0.7742,0.4711,0.7987,-0.4904,-0.0031,-0.1907,-0.2740,939.3951,-21.5025,-24.6862,-64.9125,487.9887,65.8990,-34.7136,0.4379,89.6063,0.00000000,0.00000000,0.00000000,
6.131181,0.0552,0.6528,0.7742,0.4711,0.7987,-0.4904,-0.0031,-0.1907,-0.2740,939.3951,-21.5025,-24.6862,-64.9125,487.9887,66.3769,-34.7234,0.4449,89.6063,0.00000000,0.00000000,0.00000000,
6.162437,0.0552,0.6528,0.7742,0.4711,0.7987,-0.4904,-0.0031,-0.1907,-0.2740,939.3951,-20.8900,-24.8787,-65.5550,487.9887,66.3769,-34.7234,0.4449,89.6063,0.00000000,0.00000000,0.00000000,
6.190104,0.0387,0.6504,0.7752,0.4711,0.7987,-0.4904,-0.0031,-0.1907,-0.2740,939.3951,-20.8900,-24.8787,-65.5550,487.9887,66.3769,-34.7234,0.4449,89.6063,0.00000000,0.00000000,0.00000000,
6.195498,0.0387,0.6504,0.7752,0.4711,0.7987,-0.4904,0.0240,-0.1918,-0.2795,939.3951,-20.8900,-24.8787,-65.5550,487.9887,66.3769,-34.7234,0.4449,89.6063,0.00000000,0.00000000,0.00000000,
6.196517,0.0387,0.6504,0.7752,0.2930,0.7515,-0.4490,0.0240,-0.1918,-0.2795,939.3951,-20.8900,-24.8787,-65.5550,487.9887,66.3769,-34.7234,0.4449,89.6063,0.00000000,0.00000000,0.00000000,
6.197323,0.0387,0.6504,0.7752,0.2930,0.7515,-0.4490,0.0240,-0.1918,-0.2795,939.3951,-20.8900,-24.8787,-65.5550,487.9887,66.8140,-34.8366,0.4410,89.6063,0.00000000,0.00000000,0.00000000,
6.202368,0.0387,0.6504,0.7752,0.2930,0.7515,-0.4490,0.0240,-0.1918,-0.2795,939.3782,-20.8900,-24.8787,-65.5550,487.9887,66.8140,-34.8366,0.4410,89.6063,0.00000000,0.00000000,0.00000000,
6.233241,0.0387,0.6504,0.7752,0.2930,0.7515,-0.4490,0.0240,-0.1918,-0.2795,939.3782,-20.6962,-25.0588,-65.4562,487.9887,66.8140,-34.8366,0.4410,89.6063,0.00000000,0.00000000,0.00000000,
6.242767,0.0387,0.6504,0.7752,0.2930,0.7515,-0.4490,0.0240,-0.1918,-0.2795,939.3792,-20.6962,-25.0588,-65.4562,487.9887,66.8140,-34.8366,0.4410,88.5975,0.00000000,0.00000000,0.00000000,
6.257180,0.0348,0.6534,0.7537,0.2930,0.7515,-0.4490,0.0240,-0.1918,-0.2795,939.3792,-20.6962,-25.0588,-65.4562,487.9887,66.8140,-34.8366,0.4410,88.5975,0.00000000,0.00000000,0.00000000,
6.261701,0.0348,0.6534,0.7537,0.2930,0.7515,-0.4490,0.0318,-0.1903,-0.2807,939.3792,-20.6962,-25.0588,-65.4562,487.9887,66.8140,-34.8366,0.4410,88.5975,0.00000000,0.00000000,0.00000000,
6.262587,0.0348,0.6534,0.7537,0.2781,0.7605,-0.6489,0.0318,-0.1903,-0.2807,939.3792,-20.6962,-25.0588,-65.4562,487.9887,66.8140,-34.8366,0.4410,88.5975,0.00000000,0.00000000,0.00000000,
6.263295,0.0348,0.6534,0.7537,0.2781,0.7605,-0.6489,0.0318,-0.1903,-0.2807,939.3792,-20.6962,-25.0588,-65.4562,487.9887,67.2035,-34.9811,0.4264,88.5975,0.00000000,0.00000000,0.00000000,
6.301712,0.0348,0.6534,0.7537,0.2781,0.7605,-0.6489,0.0318,-0.1903,-0.2807,939.3792,-20.2412,-25.4438,-65.0762,487.9887,67.2035,-34.9811,0.4264,88.5975,0.00000000,0.00000000,0.00000000,
6.322939,0.0348,0.6534,0.7537,0.2781,0.7605,-0.6489,0.0318,-0.1903,-0.2807,939.3994,-20.2412,-25.4438,-65.0762,487.9887,67.2035,-34.9811,0.4264,88.5975,0.00000000,0.00000000,0.00000000,
6.324879,0.0495,0.6627,0.7455,0.2781,0.7605,-0.6489,0.0318,-0.1903,-0.2807,939.3994,-20.2412,-25.4438,-65.0762,487.9887,67.2035,-34.9811,0.4264,88.5975,0.00000000,0.00000000,0.00000000,
6.328893,0.0495,0.6627,0.7455,0.2781,0.7605,-0.6489,0.0286,-0.1932,-0.2790,939.3994,-20.2412,-25.4438,-65.0762,487.9887,67.2035,-34.9811,0.4264,88.5975,0.00000000,0.00000000,0.00000000,
6.330040,0.0495,0.6627,0.7455,0.4393,0.8651,-0.7416,0.0286,-0.1932,-0.2790,939.3994,-20.2412,-25.4438,-65.0762,487.9887,67.2035,-34.9811,0.4264,88.5975,0.00000000,0.00000000,0.00000000,
6.330878,0.0495,0.6627,0.7455,0.4393,0.8651,-0.7416,0.0286,-0.1932,-0.2790,939.3994,-20.2412,-25.4438,-65.0762,487.9887,67.7387,-35.1149,0.4226,88.5975,0.00000000,0.00000000,0.00000000,
6.373663,0.0495,0.6627,0.7455,0.4393,0.8651,-0.7416,0.0286,-0.1932,-0.2790,939.3994,-19.7887,-25.7550,-64.6687,487.9887,67.7387,-35.1149,0.4226,88.5975,0.00000000,0.00000000,0.00000000,
6.392098,0.0560,0.6705,0.7321,0.4393,0.8651,-0.7416,0.0286,-0.1932,-0.2790,939.3994,-19.7887,-25.7550,-64.6687,487.9887,67.7387,-35.1149,0.4226,88.5975,0.00000000,0.00000000,0.00000000,
6.397591,0.0560,0.6705,0.7321,0.4393,0.8651,-0.7416,0.0217,-0.2020,-0.2792,939.3994,-19.7887,-25.7550,-64.6687,487.9887,67.7387,-35.1149,0.4226,88.5975,0.00000000,0.00000000,0.00000000,
6.398894,0.0560,0.6705,0.7321,0.4737,0.8838,-0.7962,0.0217,-0.2020,-0.2792,939.3994,-19.7887,-25.7550,-64.6687,487.9887,67.7387,-35.1149,0.4226,88.5975,0.00000000,0.00000000,0.00000000,
6.399665,0.0560,0.6705,0.7321,0.4737,0.8838,-0.7962,0.0217,-0.2020,-0.2792,939.3994,-19.7887,-25.7550,-64.6687,487.9887,68.1234,-35.2234,0.4438,88.5975,0.00000000,0.00000000,0.00000000,
6.402380,0.0560,0.6705,0.7321,0.4737,0.8838,-0.7962,0.0217,-0.2020,-0.2792,939.4030,-19.7887,-25.7550,-64.6687,487.9887,68.1234,-35.2234,0.4438,88.5975,0.00000000,0.00000000,0.00000000,
6.442075,0.0560,0.6705,0.7321,0.4737,0.8838,-0.7962,0.0217,-0.2020,-0.2792,939.4030,-19.3037,-25.2700,-64.6687,487.9887,68.1234,-35.2234,0.4438,88.5975,0.00000000,0.00000000,0.00000000,
6.443460,0.0560,0.6705,0.7321,0.4737,0.8838,-0.7962,0.0217,-0.2020,-0.2792,939.3998,-19.3037,-25.2700,-64.6687,487.9887,68.1234,-35.2234,0.4438,88.5975,0.00000000,0.00000000,0.00000000,
6.458786,0.0510,0.6613,0.7289,0.4737,0.8838,-0.7962,0.0217,-0.2020,-0.2792,939.3998,-19.3037,-25.2700,-64.6687,487.9887,68.1234,-35.2234,0.4438,88.5975,0.00000000,0.00000000,0.00000000,
6.464462,0.0510,0.6613,0.7289,0.4257,0.7983,-0.8969,0.0217,-0.2020,-0.2792,939.3998,-19.3037,-25.2700,-64.6687,487.9887,68.1234,-35.2234,0.4438,88.5975,0.00000000,0.00000000,0.00000000,
6.465618,0.0510,0.6613,0.7289,0.4257,0.7983,-0.8969,0.0127,-0.2130,-0.2836,939.3998,-19.3037,-25.2700,-64.6687,487.9887,68.1234,-35.2234,0.4438,88.5975,0.00000000,0.00000000,0.00000000,
6.466299,0.0510,0.6613,0.7289,0.4257,0.7983,-0.8969,0.0127,-0.2130,-0.2836,939.3998,-19.3037,-25.2700,-64.6687,487.9887,68.4691,-35.2984,0.4869,88.5975,0.00000000,0.00000000,0.00000000,
6.512431,0.0510,0.6613,0.7289,0.4257,0.7983,-0.8969,0.0127,-0.2130,-0.2836,939.3998,-18.8912,-25.3400,-63.9537,487.9887,68.4691,-35.2984,0.4869,88.5975,0.00000000,0.00000000,0.00000000,
6.522922,0.0510,0.6613,0.7289,0.4257,0.7983,-0.8969,0.0127,-0.2130,-0.2836,939.4036,-18.8912,-25.3400,-63.9537,487.9887,68.4691,-35.2984,0.4869,88.5975,0.00000000,0.00000000,0.00000000,
6.525741,0.0410,0.6623,0.7263,0.4257,0.7983,-0.8969,0.0127,-0.2130,-0.2836,939.4036,-18.8912,-25.3400,-63.9537,487.9887,68.4691,-35.2984,0.4869,88.5975,0.00000000,0.00000000,0.00000000,
6.532319,0.0410,0.6623,0.7263,0.4257,0.7983,-0.8969,-0.0049,-0.2132,-0.2871,939.4036,-18.8912,-25.3400,-63.9537,487.9887,68.4691,-35.2984,0.4869,88.5975,0.00000000,0.00000000,0.00000000,
6.533442,0.0410,0.6623,0.7263,0.2991,0.7853,-0.8034,-0.0049,-0.2132,-0.2871,939.4036,-18.8912,-25.3400,-63.9537,487.9887,68.4691,-35.2984,0.4869,88.5975,0.00000000,0.00000000,0.00000000,
6.534374,0.0410,0.6623,0.7263,0.2991,0.7853,-0.8034,-0.0049,-0.2132,-0.2871,939.4036,-18.8912,-25.3400,-63.9537,487.9887,68.9478,-35.3057,0.5214,88.5975,0.00000000,0.00000000,0.00000000,
6.582749,0.0410,0.6623,0.7263,0.2991,0.7853,-0.8034,-0.0049,-0.2132,-0.2871,939.4036,-18.3150,-25.0262,-64.0687,487.9887,68.9478,-35.3057,0.5214,90.0004,0.00000000,0.00000000,0.00000000,
6.593235,0.0436,0.6688,0.7486,0.2991,0.7853,-0.8034,-0.0049,-0.2132,-0.2871,939.4036,-18.3150,-25.0262,-64.0687,487.9887,68.9478,-35.3057,0.5214,90.0004,0.00000000,0.00000000,0.00000000,
6.598195,0.0436,0.6688,0.7486,0.2991,0.7853,-0.8034,-0.0079,-0.2169,-0.2848,939.4036,-18.3150,-25.0262,-64.0687,487.9887,68.9478,-35.3057,0.5214,90.0004,0.00000000,0.00000000,0.00000000,
6.599261,0.0436,0.6688,0.7486,0.3534,0.9085,-0.6667,-0.0079,-0.2169,-0.2848,939.4036,-18.3150,-25.0262,-64.0687,487.9887,68.9478,-35.3057,0.5214,90.0004,0.00000000,0.00000000,0.00000000,
6.599990,0.0436,0.6688,0.7486,0.3534,0.9085,-0.6667,-0.0079,-0.2169,-0.2848,939.4036,-18.3150,-25.0262,-64.0687,487.9887,69.2300,-35.3026,0.5724,90.0004,0.00000000,0.00000000,0.00000000,
6.602773,0.0436,0.6688,0.7486,0.3534,0.9085,-0.6667,-0.0079,-0.2169,-0.2848,939.3920,-18.3150,-25.0262,-64.0687,487.9887,69.2300,-35.3026,0.5724,90.0004,0.00000000,0.00000000,0.00000000,
6.643841,0.0436,0.6688,0.7486,0.3534,0.9085,-0.6667,-0.0079,-0.2169,-0.2848,939.4313,-18.3150,-25.0262,-64.0687,487.9887,69.2300,-35.3026,0.5724,90.0004,0.00000000,0.00000000,0.00000000,
6.652729,0.0436,0.6688,0.7486,0.3534,0.9085,-0.6667,-0.0079,-0.2169,-0.2848,939.4313,-18.0925,-25.5887,-64.1387,487.9887,69.2300,-35.3026,0.5724,90.0004,0.00000000,0.00000000,0.00000000,
6.660447,0.0444,0.6766,0.7480,0.3534,0.9085,-0.6667,-0.0079,-0.2169,-0.2848,939.4313,-18.0925,-25.5887,-64.1387,487.9887,69.2300,-35.3026,0.5724,90.0004,0.00000000,0.00000000,0.00000000,
6.665004,0.0444,0.6766,0.7480,0.3534,0.9085,-0.6667,-0.0148,-0.2153,-0.2799,939.4313,-18.0925,-25.5887,-64.1387,487.9887,69.2300,-35.3026,0.5724,90.0004,0.00000000,0.00000000,0.00000000,
6.665959,0.0444,0.6766,0.7480,0.3196,0.9453,-0.6461,-0.0148,-0.2153,-0.2799,939.4313,-18.0925,-25.5887,-64.1387,487.9887,69.2300,-35.3026,0.5724,90.0004,0.00000000,0.00000000,0.00000000,
6.666755,0.0444,0.6766,0.7480,0.3196,0.9453,-0.6461,-0.0148,-0.2153,-0.2799,939.4313,-18.0925,-25.5887,-64.1387,487.9887,69.5033,-35.2741,0.6297,90.0004,0.00000000,0.00000000,0.00000000,
6.723569,0.0444,0.6766,0.7480,0.3196,0.9453,-0.6461,-0.0148,-0.2153,-0.2799,939.4313,-17.4613,-25.4812,-64.0175,487.9887,69.5033,-35.2741,0.6297,90.0004,0.00000000,0.00000000,0.00000000,
6.725525,0.0444,0.6766,0.7480,0.3196,0.9453,-0.6461,-0.0148,-0.2153,-0.2799,939.3917,-17.4613,-25.4812,-64.0175,487.9887,69.5033,-35.2741,0.6297,90.0004,0.00000000,0.00000000,0.00000000,
6.727310,0.0439,0.6698,0.7639,0.3196,0.9453,-0.6461,-0.0148,-0.2153,-0.2799,939.3917,-17.4613,-25.4812,-64.0175,487.9887,69.5033,-35.2741,0.6297,90.0004,0.00000000,0.00000000,0.00000000,
6.732606,0.0439,0.6698,0.7639,0.3196,0.9453,-0.6461,-0.0066,-0.2185,-0.2775,939.3917,-17.4613,-25.4812,-64.0175,487.9887,69.5033,-35.2741,0.6297,90.0004,0.00000000,0.00000000,0.00000000,
6.733565,0.0439,0.6698,0.7639,0.3131,0.8592,-0.5363,-0.0066,-0.2185,-0.2775,939.3917,-17.4613,-25.4812,-64.0175,487.9887,69.5033,-35.2741,0.6297,90.0004,0.00000000,0.00000000,0.00000000,
6.734339,0.0439,0.6698,0.7639,0.3131,0.8592,-0.5363,-0.0066,-0.2185,-0.2775,939.3917,-17.4613,-25.4812,-64.0175,487.9887,69.8531,-35.2778,0.7024,90.0004,0.00000000,0.00000000,0.00000000,
6.793278,0.0439,0.6698,0.7639,0.3131,0.8592,-0.5363,-0.0066,-0.2185,-0.2775,939.3917,-16.9225,-26.0837,-63.6213,487.9887,69.8531,-35.2778,0.7024,90.0004,0.00000000,0.00000000,0.00000000,
6.794791,0.0419,0.6605,0.7604,0.3131,0.8592,-0.5363,-0.0066,-0.2185,-0.2775,939.3917,-16.9225,-26.0837,-63.6213,487.9887,69.8531,-35.2778,0.7024,90.0004,0.00000000,0.00000000,0.00000000,
6.799320,0.0419,0.6605,0.7604,0.3131,0.8592,-0.5363,0.0021,-0.2228,-0.2804,939.3917,-16.9225,-26.0837,-63.6213,487.9887,69.8531,-35.2778,0.7024,90.0004,0.00000000,0.00000000,0.00000000,
6.800405,0.0419,0.6605,0.7604,0.2834,0.7972,-0.5491,0.0021,-0.2228,-0.2804,939.3917,-16.9225,-26.0837,-63.6213,487.9887,69.8531,-35.2778,0.7024,90.0004,0.00000000,0.00000000,0.00000000,
6.801199,0.0419,0.6605,0.7604,0.2834,0.7972,-0.5491,0.0021,-0.2228,-0.2804,939.3917,-16.9225,-26.0837,-63.6213,487.9887,70.0761,-35.3165,0.7816,90.0004,0.00000000,0.00000000,0.00000000,
6.802848,0.0419,0.6605,0.7604,0.2834,0.7972,-0.5491,0.0021,-0.2228,-0.2804,939.3924,-16.9225,-26.0837,-63.6213,487.9887,70.0761,-35.3165,0.7816,90.0004,0.00000000,0.00000000,0.00000000,
6.842762,0.0419,0.6605,0.7604,0.2834,0.7972,-0.5491,0.0021,-0.2228,-0.2804,939.4085,-16.9225,-26.0837,-63.6213,487.9887,70.0761,-35.3165,0.7816,88.5616,0.00000000,0.00000000,0.00000000,
6.862646,0.0435,0.6631,0.7580,0.2834,0.7972,-0.5491,0.0021,-0.2228,-0.2804,939.4085,-16.9225,-26.0837,-63.6213,487.9887,70.0761,-35.3165,0.7816,88.5616,0.00000000,0.00000000,0.00000000,
6.864662,0.0435,0.6631,0.7580,0.2834,0.7972,-0.5491,0.0021,-0.2228,-0.2804,939.4085,-16.5550,-26.9175,-63.3800,487.9887,70.0761,-35.3165,0.7816,88.5616,0.00000000,0.00000000,0.00000000,
6.866573,0.0435,0.6631,0.7580,0.2834,0.7972,-0.5491,0.0098,-0.2234,-0.2856,939.4085,-16.5550,-26.9175,-63.3800,487.9887,70.0761,-35.3165,0.7816,88.5616,0.00000000,0.00000000,0.00000000,
6.867368,0.0435,0.6631,0.7580,0.2951,0.8066,-0.5212,0.0098,-0.2234,-0.2856,939.4085,-16.5550,-26.9175,-63.3800,487.9887,70.0761,-35.3165,0.7816,88.5616,0.00000000,0.00000000,0.00000000,
6.868216,0.0435,0.6631,0.7580,0.2951,0.8066,-0.5212,0.0098,-0.2234,-0.2856,939.4085,-16.5550,-26.9175,-63.3800,487.9887,70.3380,-35.3868,0.8498,88.5616,0.00000000,0.00000000,0.00000000,
6.922673,0.0435,0.6631,0.7580,0.2951,0.8066,-0.5212,0.0098,-0.2234,-0.2856,939.3945,-16.5550,-26.9175,-63.3800,487.9887,70.3380,-35.3868,0.8498,88.5616,0.00000000,0.00000000,0.00000000,
6.929342,0.0385,0.6654,0.7506,0.2951,0.8066,-0.5212,0.0098,-0.2234,-0.2856,939.3945,-16.5550,-26.9175,-63.3800,487.9887,70.3380,-35.3868,0.8498,88.5616,0.00000000,0.00000000,0.00000000,
6.933928,0.0385,0.6654,0.7506,0.2951,0.8066,-0.5212,0.0264,-0.2263,-0.2871,939.3945,-16.5550,-26.9175,-63.3800,487.9887,70.3380,-35.3868,0.8498,88.5616,0.00000000,0.00000000,0.00000000,
6.935147,0.0385,0.6654,0.7506,0.2951,0.8066,-0.5212,0.0264,-0.2263,-0.2871,939.3945,-16.1050,-26.8988,-63.4950,487.9887,70.3380,-35.3868,0.8498,88.5616,0.00000000,0.00000000,0.00000000,
6.937387,0.0385,0.6654,0.7506,0.2404,0.7802,-0.6862,0.0264,-0.2263,-0.2871,939.3945,-16.1050,-26.8988,-63.4950,487.9887,70.3380,-35.3868,0.8498,88.5616,0.00000000,0.00000000,0.00000000,
6.938398,0.0385,0.6654,0.7506,0.2404,0.7802,-0.6862,0.0264,-0.2263,-0.2871,939.3945,-16.1050,-26.8988,-63.4950,487.9887,70.5434,-35.5238,0.9207,88.5616,0.00000000,0.00000000,0.00000000,
6.951134,0.0385,0.6654,0.7506,0.2404,0.7802,-0.6862,0.0264,-0.2263,-0.2871,939.3945,-16.1050,-26.8988,-63.4950,445.5562,70.5434,-35.5238,0.9207,88.5616,0.00000000,0.00000000,0.00000000,
6.997287,0.0432,0.6680,0.7334,0.2404,0.7802,-0.6862,0.0264,-0.2263,-0.2871,939.3945,-16.1050,-26.8988,-63.4950,445.5562,70.5434,-35.5238,0.9207,88.5616,0.00000000,0.00000000,0.00000000,
7.001148,0.0432,0.6680,0.7334,0.2404,0.7802,-0.6862,0.0305,-0.2240,-0.2859,939.3945,-16.1050,-26.8988,-63.4950,445.5562,70.5434,-35.5238,0.9207,88.5616,0.00000000,0.00000000,0.00000000,
7.002257,0.0432,0.6680,0.7334,0.2495,0.8252,-0.7624,0.0305,-0.2240,-0.2859,939.3945,-16.1050,-26.8988,-63.4950,445.5562,70.5434,-35.5238,0.9207,88.5616,0.00000000,0.00000000,0.00000000,
7.003234,0.0432,0.6680,0.7334,0.2495,0.8252,-0.7624,0.0305,-0.2240,-0.2859,939.3945,-16.1050,-26.8988,-63.4950,445.5562,70.8505,-35.6795,0.9838,88.5616,0.00000000,0.00000000,0.00000000,
7.004196,0.0432,0.6680,0.7334,0.2495,0.8252,-0.7624,0.0305,-0.2240,-0.2859,939.3926,-16.1050,-26.8988,-63.4950,445.5562,70.8505,-35.6795,0.9838,88.5616,0.00000000,0.00000000,0.00000000,
7.004936,0.0432,0.6680,0.7334,0.2495,0.8252,-0.7624,0.0305,-0.2240,-0.2859,939.3926,-15.3400,-27.0187,-63.2812,445.5562,70.8505,-35.6795,0.9838,88.5616,0.00000000,0.00000000,0.00000000,
7.042684,0.0432,0.6680,0.7334,0.2495,0.8252,-0.7624,0.0305,-0.2240,-0.2859,939.4153,-15.3400,-27.0187,-63.2812,445.5562,70.8505,-35.6795,0.9838,88.5616,0.00000000,0.00000000,0.00000000,
7.064867,0.0382,0.6684,0.7301,0.2495,0.8252,-0.7624,0.0305,-0.2240,-0.2859,939.4153,-15.3400,-27.0187,-63.2812,445.5562,70.8505,-35.6795,0.9838,88.5616,0.00000000,0.00000000,0.00000000,
7.068251,0.0382,0.6684,0.7301,0.2495,0.8252,-0.7624,0.0260,-0.2230,-0.2842,939.4153,-15.3400,-27.0187,-63.2812,445.5562,70.8505,-35.6795,0.9838,88.5616,0.00000000,0.00000000,0.00000000,
7.069212,0.0382,0.6684,0.7301,0.2160,0.8133,-0.7988,0.0260,-0.2230,-0.2842,939.4153,-15.3400,-27.0187,-63.2812,445.5562,70.8505,-35.6795,0.9838,88.5616,0.00000000,0.00000000,0.00000000,
7.070003,0.0382,0.6684,0.7301,0.2160,0.8133,-0.7988,0.0260,-0.2230,-0.2842,939.4153,-15.3400,-27.0187,-63.2812,445.5562,70.8954,-35.8188,1.0434,88.5616,0.00000000,0.00000000,0.00000000,
7.073596,0.0382,0.6684,0.7301,0.2160,0.8133,-0.7988,0.0260,-0.2230,-0.2842,939.4153,-14.6937,-27.2437,-63.5625,445.5562,70.8954,-35.8188,1.0434,88.5616,0.00000000,0.00000000,0.00000000,
7.122754,0.0382,0.6684,0.7301,0.2160,0.8133,-0.7988,0.0260,-0.2230,-0.2842,939.4283,-14.6937,-27.2437,-63.5625,445.5562,70.8954,-35.8188,1.0434,88.5616,0.00000000,0.00000000,0.00000000,
7.131918,0.0311,0.6794,0.7210,0.2160,0.8133,-0.7988,0.0260,-0.2230,-0.2842,939.4283,-14.6937,-27.2437,-63.5625,445.5562,70.8954,-35.8188,1.0434,88.5616,0.00000000,0.00000000,0.00000000,
7.135472,0.0311,0.6794,0.7210,0.2160,0.8133,-0.7988,0.0238,-0.2220,-0.2865,939.4283,-14.6937,-27.2437,-63.5625,445.5562,70.8954,-35.8188,1.0434,88.5616,0.00000000,0.00000000,0.00000000,
7.136473,0.0311,0.6794,0.7210,0.1176,0.9206,-0.8128,0.0238,-0.2220,-0.2865,939.4283,-14.6937,-27.2437,-63.5625,445.5562,70.8954,-35.8188,1.0434,88.5616,0.00000000,0.00000000,0.00000000,
7.137296,0.0311,0.6794,0.7210,0.1176,0.9206,-0.8128,0.0238,-0.2220,-0.2865,939.4283,-14.6937,-27.2437,-63.5625,445.5562,70.8668,-35.9523,1.0910,88.5616,0.00000000,0.00000000,0.00000000,
