
time,gFx,gFy,gFz,ax,ay,az,wx,wy,wz,Bx,By,Bz,Azimuth,Pitch,Roll,Latitude,Longitude,Speed (m/s),
0.084522,0.0686,0.5379,0.7948,0.0000,0.0000,0.0000,0.0000,0.0000,0.0000,0.0000,0.0000,0.0000,0.0000,0.0000,0.0000,0.00000000,0.00000000,0.00000000,
0.086173,0.0686,0.5379,0.7948,0.0000,0.0000,0.0000,0.0000,0.0000,0.0000,0.0000,0.0000,0.0000,0.0000,0.0000,0.0000,40.74426527,-74.17786174,0.00000000,
0.086776,0.0686,0.5379,0.7948,0.0000,0.0000,0.0000,0.0000,0.0000,0.0000,0.0000,0.0000,0.0000,0.0000,0.0000,0.0000,40.74426527,-74.17786174,0.00000000,
0.106924,0.0686,0.5379,0.7948,0.0000,0.0000,0.0000,-0.6666,0.8186,0.6225,0.0000,0.0000,0.0000,0.0000,0.0000,0.0000,40.74426527,-74.17786174,0.00000000,
0.108934,0.0686,0.5379,0.7948,0.0471,0.2070,-0.3302,-0.6666,0.8186,0.6225,0.0000,0.0000,0.0000,0.0000,0.0000,0.0000,40.74426527,-74.17786174,0.00000000,
0.143230,0.0686,0.5379,0.7948,0.0471,0.2070,-0.3302,-0.6666,0.8186,0.6225,0.0000,0.0000,0.0000,0.0000,0.0000,0.0000,40.74426527,-74.17786174,0.00000000,
0.144073,0.0877,0.5345,0.8905,0.0471,0.2070,-0.3302,-0.6666,0.8186,0.6225,0.0000,0.0000,0.0000,0.0000,0.0000,0.0000,40.74426527,-74.17786174,0.00000000,
0.144935,0.0798,0.5411,0.8436,0.0471,0.2070,-0.3302,-0.6666,0.8186,0.6225,0.0000,0.0000,0.0000,0.0000,0.0000,0.0000,40.74426527,-74.17786174,0.00000000,
0.155945,0.0798,0.5411,0.8436,0.0471,0.2070,-0.3302,-0.6666,0.8186,0.6225,10.3210,-35.9604,-16.3910,0.0000,0.0000,0.0000,40.74426527,-74.17786174,0.00000000,
0.161174,0.0798,0.5411,0.8436,0.0471,0.2070,-0.3302,0.0420,0.0265,0.0161,10.3210,-35.9604,-16.3910,0.0000,0.0000,0.0000,40.74426527,-74.17786174,0.00000000,
0.162121,0.0798,0.5411,0.8436,0.1377,0.1267,0.1486,0.0420,0.0265,0.0161,10.3210,-35.9604,-16.3910,0.0000,0.0000,0.0000,40.74426527,-74.17786174,0.00000000,
0.162690,0.0798,0.5411,0.8436,0.1377,0.1267,0.1486,0.0420,0.0265,0.0161,10.3210,-35.9604,-16.3910,207.5098,-32.1740,4.0606,40.74426527,-74.17786174,0.00000000,
0.200159,0.0847,0.5389,0.8160,0.1377,0.1267,0.1486,0.0420,0.0265,0.0161,10.3210,-35.9604,-16.3910,207.5098,-32.1740,4.0606,40.74426527,-74.17786174,0.00000000,
0.201055,0.0864,0.5394,0.8297,0.1377,0.1267,0.1486,0.0420,0.0265,0.0161,10.3210,-35.9604,-16.3910,207.5098,-32.1740,4.0606,40.74426527,-74.17786174,0.00000000,
0.201697,0.0816,0.5347,0.8314,0.1377,0.1267,0.1486,0.0420,0.0265,0.0161,10.3210,-35.9604,-16.3910,207.5098,-32.1740,4.0606,40.74426527,-74.17786174,0.00000000,
0.205901,0.0816,0.5347,0.8314,0.1377,0.1267,0.1486,0.0420,0.0265,0.0161,10.6079,-37.5320,-17.2699,207.5098,-32.1740,4.0606,40.74426527,-74.17786174,0.00000000,
0.219951,0.0816,0.5347,0.8314,0.1377,0.1267,0.1486,0.0222,-0.0016,0.0074,10.6079,-37.5320,-17.2699,207.5098,-32.1740,4.0606,40.74426527,-74.17786174,0.00000000,
0.220897,0.0816,0.5347,0.8314,0.1035,0.0789,-0.0725,0.0222,-0.0016,0.0074,10.6079,-37.5320,-17.2699,207.5098,-32.1740,4.0606,40.74426527,-74.17786174,0.00000000,
0.221525,0.0816,0.5347,0.8314,0.1035,0.0789,-0.0725,0.0222,-0.0016,0.0074,10.6079,-37.5320,-17.2699,207.6951,-32.4556,4.2845,40.74426527,-74.17786174,0.00000000,
0.255621,0.0816,0.5347,0.8314,0.1035,0.0789,-0.0725,0.0222,-0.0016,0.0074,10.5713,-38.9648,-18.4738,207.6951,-32.4556,4.2845,40.74426527,-74.17786174,0.00000000,
0.259870,0.0852,0.5369,0.8119,0.1035,0.0789,-0.0725,0.0222,-0.0016,0.0074,10.5713,-38.9648,-18.4738,207.6951,-32.4556,4.2845,40.74426527,-74.17786174,0.00000000,
0.261065,0.0921,0.5337,0.8158,0.1035,0.0789,-0.0725,0.0222,-0.0016,0.0074,10.5713,-38.9648,-18.4738,207.6951,-32.4556,4.2845,40.74426527,-74.17786174,0.00000000,
0.262059,0.0957,0.5367,0.8346,0.1035,0.0789,-0.0725,0.0222,-0.0016,0.0074,10.5713,-38.9648,-18.4738,207.6951,-32.4556,4.2845,40.74426527,-74.17786174,0.00000000,
0.278298,0.0957,0.5367,0.8346,0.1035,0.0789,-0.0725,-0.0091,0.0037,0.0139,10.5713,-38.9648,-18.4738,207.6951,-32.4556,4.2845,40.74426527,-74.17786174,0.00000000,
0.279566,0.0957,0.5367,0.8346,0.1414,0.0550,0.0347,-0.0091,0.0037,0.0139,10.5713,-38.9648,-18.4738,207.6951,-32.4556,4.2845,40.74426527,-74.17786174,0.00000000,
0.280389,0.0957,0.5367,0.8346,0.1414,0.0550,0.0347,-0.0091,0.0037,0.0139,10.5713,-38.9648,-18.4738,207.7398,-32.4628,4.5008,40.74426527,-74.17786174,0.00000000,
0.317233,0.0886,0.5359,0.8590,0.1414,0.0550,0.0347,-0.0091,0.0037,0.0139,10.5713,-38.9648,-18.4738,207.7398,-32.4628,4.5008,40.74426527,-74.17786174,0.00000000,
0.318430,0.0806,0.5367,0.8639,0.1414,0.0550,0.0347,-0.0091,0.0037,0.0139,10.5713,-38.9648,-18.4738,207.7398,-32.4628,4.5008,40.74426527,-74.17786174,0.00000000,
0.319668,0.0791,0.5342,0.8397,0.1414,0.0550,0.0347,-0.0091,0.0037,0.0139,10.5713,-38.9648,-18.4738,207.7398,-32.4628,4.5008,40.74426527,-74.17786174,0.00000000,
0.337757,0.0791,0.5342,0.8397,0.0301,0.0245,0.0687,-0.0091,0.0037,0.0139,10.5713,-38.9648,-18.4738,207.7398,-32.4628,4.5008,40.74426527,-74.17786174,0.00000000,
0.339525,0.0791,0.5342,0.8397,0.0301,0.0245,0.0687,0.0316,0.0216,0.0129,10.5713,-38.9648,-18.4738,207.7398,-32.4628,4.5008,40.74426527,-74.17786174,0.00000000,
0.340741,0.0791,0.5342,0.8397,0.0301,0.0245,0.0687,0.0316,0.0216,0.0129,10.5713,-38.9648,-18.4738,207.6790,-32.5431,4.4920,40.74426527,-74.17786174,0.00000000,
0.361743,0.0791,0.5342,0.8397,0.0301,0.0245,0.0687,0.0316,0.0216,0.0129,8.1497,-41.0370,-18.5043,207.6790,-32.5431,4.4920,40.74426527,-74.17786174,0.00000000,
0.377332,0.0825,0.5320,0.8177,0.0301,0.0245,0.0687,0.0316,0.0216,0.0129,8.1497,-41.0370,-18.5043,207.6790,-32.5431,4.4920,40.74426527,-74.17786174,0.00000000,
0.378352,0.0916,0.5357,0.8402,0.0301,0.0245,0.0687,0.0316,0.0216,0.0129,8.1497,-41.0370,-18.5043,207.6790,-32.5431,4.4920,40.74426527,-74.17786174,0.00000000,
0.379256,0.0862,0.5386,0.8570,0.0301,0.0245,0.0687,0.0316,0.0216,0.0129,8.1497,-41.0370,-18.5043,207.6790,-32.5431,4.4920,40.74426527,-74.17786174,0.00000000,
0.395144,0.0862,0.5386,0.8570,0.0301,0.0245,0.0687,0.0235,-0.0059,-0.0028,8.1497,-41.0370,-18.5043,207.6790,-32.5431,4.4920,40.74426527,-74.17786174,0.00000000,
0.396542,0.0862,0.5386,0.8570,0.0665,0.0441,0.0475,0.0235,-0.0059,-0.0028,8.1497,-41.0370,-18.5043,207.6790,-32.5431,4.4920,40.74426527,-74.17786174,0.00000000,
0.397644,0.0862,0.5386,0.8570,0.0665,0.0441,0.0475,0.0235,-0.0059,-0.0028,8.1497,-41.0370,-18.5043,207.3435,-32.6343,4.5637,40.74426527,-74.17786174,0.00000000,
0.406471,0.0862,0.5386,0.8570,0.0665,0.0441,0.0475,0.0235,-0.0059,-0.0028,10.3348,-41.2674,-20.1843,207.3435,-32.6343,4.5637,40.74426527,-74.17786174,0.00000000,
0.434609,0.0796,0.5403,0.8177,0.0665,0.0441,0.0475,0.0235,-0.0059,-0.0028,10.3348,-41.2674,-20.1843,207.3435,-32.6343,4.5637,40.74426527,-74.17786174,0.00000000,
0.437788,0.0752,0.5457,0.8121,0.0665,0.0441,0.0475,0.0235,-0.0059,-0.0028,10.3348,-41.2674,-20.1843,207.3435,-32.6343,4.5637,40.74426527,-74.17786174,0.00000000,
0.440695,0.0713,0.5501,0.8558,0.0665,0.0441,0.0475,0.0235,-0.0059,-0.0028,10.3348,-41.2674,-20.1843,207.3435,-32.6343,4.5637,40.74426527,-74.17786174,0.00000000,
0.455899,0.0713,0.5501,0.8558,0.0665,0.0441,0.0475,0.0135,0.0255,-0.0073,10.3348,-41.2674,-20.1843,207.3435,-32.6343,4.5637,40.74426527,-74.17786174,0.00000000,
0.459001,0.0713,0.5501,0.8558,-0.0123,0.1018,0.0916,0.0135,0.0255,-0.0073,10.3348,-41.2674,-20.1843,207.3435,-32.6343,4.5637,40.74426527,-74.17786174,0.00000000,
0.461270,0.0713,0.5501,0.8558,-0.0123,0.1018,0.0916,0.0135,0.0255,-0.0073,10.3348,-41.2674,-20.1843,207.3259,-32.7079,4.4600,40.74426527,-74.17786174,0.00000000,
0.465061,0.0713,0.5501,0.8558,-0.0123,0.1018,0.0916,0.0135,0.0255,-0.0073,9.2682,-42.4026,-21.1288,207.3259,-32.7079,4.4600,40.74426527,-74.17786174,0.00000000,
0.492937,0.0818,0.5430,0.8636,-0.0123,0.1018,0.0916,0.0135,0.0255,-0.0073,9.2682,-42.4026,-21.1288,207.3259,-32.7079,4.4600,40.74426527,-74.17786174,0.00000000,
0.494889,0.0794,0.5391,0.8565,-0.0123,0.1018,0.0916,0.0135,0.0255,-0.0073,9.2682,-42.4026,-21.1288,207.3259,-32.7079,4.4600,40.74426527,-74.17786174,0.00000000,
0.496365,0.0786,0.5337,0.8634,-0.0123,0.1018,0.0916,0.0135,0.0255,-0.0073,9.2682,-42.4026,-21.1288,207.3259,-32.7079,4.4600,40.74426527,-74.17786174,0.00000000,
0.512216,0.0786,0.5337,0.8634,-0.0123,0.1018,0.0916,0.0628,0.0529,0.0117,9.2682,-42.4026,-21.1288,207.3259,-32.7079,4.4600,40.74426527,-74.17786174,0.00000000,
0.514677,0.0786,0.5337,0.8634,0.0182,-0.0342,0.2092,0.0628,0.0529,0.0117,9.2682,-42.4026,-21.1288,207.3259,-32.7079,4.4600,40.74426527,-74.17786174,0.00000000,
0.516594,0.0786,0.5337,0.8634,0.0182,-0.0342,0.2092,0.0628,0.0529,0.0117,9.2682,-42.4026,-21.1288,207.0298,-32.8032,4.3369,40.74426527,-74.17786174,0.00000000,
0.551869,0.0737,0.5320,0.8504,0.0182,-0.0342,0.2092,0.0628,0.0529,0.0117,9.2682,-42.4026,-21.1288,207.0298,-32.8032,4.3369,40.74426527,-74.17786174,0.00000000,
0.555798,0.0769,0.5362,0.8099,0.0182,-0.0342,0.2092,0.0628,0.0529,0.0117,9.2682,-42.4026,-21.1288,207.0298,-32.8032,4.3369,40.74426527,-74.17786174,0.00000000,
0.559942,0.0901,0.5467,0.7794,0.0182,-0.0342,0.2092,0.0628,0.0529,0.0117,9.2682,-42.4026,-21.1288,207.0298,-32.8032,4.3369,40.74426527,-74.17786174,0.00000000,
0.563282,0.0901,0.5467,0.7794,0.0182,-0.0342,0.2092,0.0628,0.0529,0.0117,9.0958,-44.3527,-22.6257,207.0298,-32.8032,4.3369,40.74426527,-74.17786174,0.00000000,
0.579510,0.0901,0.5467,0.7794,0.0909,0.0296,-0.3790,0.0628,0.0529,0.0117,9.0958,-44.3527,-22.6257,207.0298,-32.8032,4.3369,40.74426527,-74.17786174,0.00000000,
0.581842,0.0901,0.5467,0.7794,0.0909,0.0296,-0.3790,0.0628,0.0529,0.0117,9.0958,-44.3527,-22.6257,206.9080,-33.2662,4.3837,40.74426527,-74.17786174,0.00000000,
0.583815,0.0901,0.5467,0.7794,0.0909,0.0296,-0.3790,0.0941,0.0151,0.0082,9.0958,-44.3527,-22.6257,206.9080,-33.2662,4.3837,40.74426527,-74.17786174,0.00000000,
0.606630,0.0901,0.5467,0.7794,0.0909,0.0296,-0.3790,0.0941,0.0151,0.0082,9.0393,-45.4849,-22.1680,206.9080,-33.2662,4.3837,40.74426527,-74.17786174,0.00000000,
0.613118,0.0886,0.5562,0.7794,0.0909,0.0296,-0.3790,0.0941,0.0151,0.0082,9.0393,-45.4849,-22.1680,206.9080,-33.2662,4.3837,40.74426527,-74.17786174,0.00000000,
0.615421,0.0913,0.5591,0.7996,0.0909,0.0296,-0.3790,0.0941,0.0151,0.0082,9.0393,-45.4849,-22.1680,206.9080,-33.2662,4.3837,40.74426527,-74.17786174,0.00000000,
0.617539,0.0960,0.5584,0.8416,0.0909,0.0296,-0.3790,0.0941,0.0151,0.0082,9.0393,-45.4849,-22.1680,206.9080,-33.2662,4.3837,40.74426527,-74.17786174,0.00000000,
0.630029,0.0960,0.5584,0.8416,0.0909,0.0296,-0.3790,0.0104,0.0039,-0.0020,9.0393,-45.4849,-22.1680,206.9080,-33.2662,4.3837,40.74426527,-74.17786174,0.00000000,
0.632600,0.0960,0.5584,0.8416,0.1472,0.1275,0.0556,0.0104,0.0039,-0.0020,9.0393,-45.4849,-22.1680,206.9080,-33.2662,4.3837,40.74426527,-74.17786174,0.00000000,
0.634825,0.0960,0.5584,0.8416,0.1472,0.1275,0.0556,0.0104,0.0039,-0.0020,9.0393,-45.4849,-22.1680,206.7641,-33.3458,4.4503,40.74426527,-74.17786174,0.00000000,
0.657139,0.0960,0.5584,0.8416,0.1472,0.1275,0.0556,0.0104,0.0039,-0.0020,10.4691,-47.2260,-24.1409,206.7641,-33.3458,4.4503,40.74426527,-74.17786174,0.00000000,
0.668607,0.0894,0.5569,0.8612,0.1472,0.1275,0.0556,0.0104,0.0039,-0.0020,10.4691,-47.2260,-24.1409,206.7641,-33.3458,4.4503,40.74426527,-74.17786174,0.00000000,
0.672527,0.0911,0.5516,0.8438,0.1472,0.1275,0.0556,0.0104,0.0039,-0.0020,10.4691,-47.2260,-24.1409,206.7641,-33.3458,4.4503,40.74426527,-74.17786174,0.00000000,
0.676137,0.0879,0.5484,0.8143,0.1472,0.1275,0.0556,0.0104,0.0039,-0.0020,10.4691,-47.2260,-24.1409,206.7641,-33.3458,4.4503,40.74426527,-74.17786174,0.00000000,
0.695838,0.0879,0.5484,0.8143,0.1472,0.1275,0.0556,0.0766,0.0020,-0.0235,10.4691,-47.2260,-24.1409,206.7641,-33.3458,4.4503,40.74426527,-74.17786174,0.00000000,
0.700954,0.0879,0.5484,0.8143,0.1472,0.1275,0.0556,0.0766,0.0020,-0.0235,10.4691,-47.2260,-24.1409,206.8046,-33.6412,4.4634,40.74426527,-74.17786174,0.00000000,
0.705808,0.0879,0.5484,0.8143,0.1090,-0.0014,-0.1180,0.0766,0.0020,-0.0235,10.4691,-47.2260,-24.1409,206.8046,-33.6412,4.4634,40.74426527,-74.17786174,0.00000000,
0.727874,0.0864,0.5464,0.7806,0.1090,-0.0014,-0.1180,0.0766,0.0020,-0.0235,10.4691,-47.2260,-24.1409,206.8046,-33.6412,4.4634,40.74426527,-74.17786174,0.00000000,
0.730902,0.0796,0.5491,0.7728,0.1090,-0.0014,-0.1180,0.0766,0.0020,-0.0235,10.4691,-47.2260,-24.1409,206.8046,-33.6412,4.4634,40.74426527,-74.17786174,0.00000000,
0.732747,0.0784,0.5540,0.8067,0.1090,-0.0014,-0.1180,0.0766,0.0020,-0.0235,10.4691,-47.2260,-24.1409,206.8046,-33.6412,4.4634,40.74426527,-74.17786174,0.00000000,
0.745392,0.0784,0.5540,0.8067,0.1090,-0.0014,-0.1180,-0.0040,-0.0008,-0.0429,10.4691,-47.2260,-24.1409,206.8046,-33.6412,4.4634,40.74426527,-74.17786174,0.00000000,
0.748882,0.0784,0.5540,0.8067,0.0015,0.0525,-0.1969,-0.0040,-0.0008,-0.0429,10.4691,-47.2260,-24.1409,206.8046,-33.6412,4.4634,40.74426527,-74.17786174,0.00000000,
0.750915,0.0784,0.5540,0.8067,0.0015,0.0525,-0.1969,-0.0040,-0.0008,-0.0429,10.4691,-47.2260,-24.1409,207.0276,-33.7122,4.3920,40.74426527,-74.17786174,0.00000000,
0.764370,0.0784,0.5540,0.8067,0.0015,0.0525,-0.1969,-0.0040,-0.0008,-0.0429,9.9548,-47.1161,-25.1572,207.0276,-33.7122,4.3920,40.74426527,-74.17786174,0.00000000,
0.784548,0.0706,0.5611,0.8304,0.0015,0.0525,-0.1969,-0.0040,-0.0008,-0.0429,9.9548,-47.1161,-25.1572,207.0276,-33.7122,4.3920,40.74426527,-74.17786174,0.00000000,
0.787252,0.0649,0.5635,0.8111,0.0015,0.0525,-0.1969,-0.0040,-0.0008,-0.0429,9.9548,-47.1161,-25.1572,207.0276,-33.7122,4.3920,40.74426527,-74.17786174,0.00000000,
0.789790,0.0654,0.5630,0.8045,0.0015,0.0525,-0.1969,-0.0040,-0.0008,-0.0429,9.9548,-47.1161,-25.1572,207.0276,-33.7122,4.3920,40.74426527,-74.17786174,0.00000000,
0.807217,0.0654,0.5630,0.8045,0.0015,0.0525,-0.1969,-0.0079,0.0281,-0.0126,9.9548,-47.1161,-25.1572,207.0276,-33.7122,4.3920,40.74426527,-74.17786174,0.00000000,
0.811105,0.0654,0.5630,0.8045,-0.0782,0.1309,-0.1092,-0.0079,0.0281,-0.0126,9.9548,-47.1161,-25.1572,207.0276,-33.7122,4.3920,40.74426527,-74.17786174,0.00000000,
0.814573,0.0654,0.5630,0.8045,-0.0782,0.1309,-0.1092,-0.0079,0.0281,-0.0126,9.9548,-47.1161,-25.1572,207.0270,-33.7615,4.2558,40.74426527,-74.17786174,0.00000000,
0.817740,0.0654,0.5630,0.8045,-0.0782,0.1309,-0.1092,-0.0079,0.0281,-0.0126,10.1013,-49.8627,-27.9739,207.0270,-33.7615,4.2558,40.74426527,-74.17786174,0.00000000,
0.851734,0.0667,0.5638,0.8197,-0.0782,0.1309,-0.1092,-0.0079,0.0281,-0.0126,10.1013,-49.8627,-27.9739,207.0270,-33.7615,4.2558,40.74426527,-74.17786174,0.00000000,
0.862871,0.0662,0.5591,0.8333,-0.0782,0.1309,-0.1092,-0.0079,0.0281,-0.0126,10.1013,-49.8627,-27.9739,207.0270,-33.7615,4.2558,40.74426527,-74.17786174,0.00000000,
0.866581,0.0713,0.5543,0.8639,-0.0782,0.1309,-0.1092,-0.0079,0.0281,-0.0126,10.1013,-49.8627,-27.9739,207.0270,-33.7615,4.2558,40.74426527,-74.17786174,0.00000000,
0.869615,0.0713,0.5543,0.8639,-0.0782,0.1309,-0.1092,-0.0079,0.0281,-0.0126,10.2081,-49.8199,-28.4286,207.0270,-33.7615,4.2558,40.74426527,-74.17786174,0.00000000,
0.872124,0.0713,0.5543,0.8639,-0.0782,0.1309,-0.1092,-0.0079,0.0281,-0.0126,10.2081,-49.8199,-28.4286,206.9137,-33.6260,4.1546,40.74426527,-74.17786174,0.00000000,
0.874059,0.0713,0.5543,0.8639,-0.0782,0.1309,-0.1092,-0.0266,0.0220,-0.0144,10.2081,-49.8199,-28.4286,206.9137,-33.6260,4.1546,40.74426527,-74.17786174,0.00000000,
0.875815,0.0713,0.5543,0.8639,-0.0152,0.0343,0.2504,-0.0266,0.0220,-0.0144,10.2081,-49.8199,-28.4286,206.9137,-33.6260,4.1546,40.74426527,-74.17786174,0.00000000,
0.901334,0.0740,0.5445,0.8565,-0.0152,0.0343,0.2504,-0.0266,0.0220,-0.0144,10.2081,-49.8199,-28.4286,206.9137,-33.6260,4.1546,40.74426527,-74.17786174,0.00000000,
0.902736,0.0723,0.5401,0.8023,-0.0152,0.0343,0.2504,-0.0266,0.0220,-0.0144,10.2081,-49.8199,-28.4286,206.9137,-33.6260,4.1546,40.74426527,-74.17786174,0.00000000,
0.903446,0.0754,0.5433,0.7850,-0.0152,0.0343,0.2504,-0.0266,0.0220,-0.0144,10.2081,-49.8199,-28.4286,206.9137,-33.6260,4.1546,40.74426527,-74.17786174,0.00000000,
0.921254,0.0754,0.5433,0.7850,0.0266,-0.0451,-0.2500,-0.0266,0.0220,-0.0144,10.2081,-49.8199,-28.4286,206.9137,-33.6260,4.1546,40.74426527,-74.17786174,0.00000000,
0.922364,0.0754,0.5433,0.7850,0.0266,-0.0451,-0.2500,-0.0266,0.0220,-0.0144,10.2081,-49.8199,-28.4286,206.9557,-33.7210,4.1078,40.74426527,-74.17786174,0.00000000,
0.923516,0.0754,0.5433,0.7850,0.0266,-0.0451,-0.2500,0.0171,0.0208,-0.0032,10.2081,-49.8199,-28.4286,206.9557,-33.7210,4.1078,40.74426527,-74.17786174,0.00000000,
0.956153,0.0754,0.5433,0.7850,0.0266,-0.0451,-0.2500,0.0171,0.0208,-0.0032,11.5677,-49.8322,-28.7933,206.9557,-33.7210,4.1078,40.74426527,-74.17786174,0.00000000,
0.958997,0.0737,0.5518,0.8067,0.0266,-0.0451,-0.2500,0.0171,0.0208,-0.0032,11.5677,-49.8322,-28.7933,206.9557,-33.7210,4.1078,40.74426527,-74.17786174,0.00000000,
0.959769,0.0711,0.5533,0.8219,0.0266,-0.0451,-0.2500,0.0171,0.0208,-0.0032,11.5677,-49.8322,-28.7933,206.9557,-33.7210,4.1078,40.74426527,-74.17786174,0.00000000,
0.960440,0.0757,0.5521,0.8324,0.0266,-0.0451,-0.2500,0.0171,0.0208,-0.0032,11.5677,-49.8322,-28.7933,206.9557,-33.7210,4.1078,40.74426527,-74.17786174,0.00000000,
0.979222,0.0757,0.5521,0.8324,0.0056,0.0324,0.1060,0.0171,0.0208,-0.0032,11.5677,-49.8322,-28.7933,206.9557,-33.7210,4.1078,40.74426527,-74.17786174,0.00000000,
0.980156,0.0757,0.5521,0.8324,0.0056,0.0324,0.1060,0.0171,0.0208,-0.0032,11.5677,-49.8322,-28.7933,207.0564,-33.6010,4.0595,40.74426527,-74.17786174,0.00000000,
0.980635,0.0757,0.5521,0.8324,0.0056,0.0324,0.1060,-0.0325,0.0108,-0.0095,11.5677,-49.8322,-28.7933,207.0564,-33.6010,4.0595,40.74426527,-74.17786174,0.00000000,
1.005388,0.0757,0.5521,0.8324,0.0056,0.0324,0.1060,-0.0325,0.0108,-0.0095,11.7523,-49.3301,-28.2242,207.0564,-33.6010,4.0595,40.74426527,-74.17786174,0.00000000,
1.017601,0.0659,0.5496,0.8541,0.0056,0.0324,0.1060,-0.0325,0.0108,-0.0095,11.7523,-49.3301,-28.2242,207.0564,-33.6010,4.0595,40.74426527,-74.17786174,0.00000000,
1.019563,0.0669,0.5447,0.8504,0.0056,0.0324,0.1060,-0.0325,0.0108,-0.0095,11.7523,-49.3301,-28.2242,207.0564,-33.6010,4.0595,40.74426527,-74.17786174,0.00000000,
1.022102,0.0598,0.5447,0.8292,0.0056,0.0324,0.1060,-0.0325,0.0108,-0.0095,11.7523,-49.3301,-28.2242,207.0564,-33.6010,4.0595,40.74426527,-74.17786174,0.00000000,
1.037068,0.0598,0.5447,0.8292,0.0056,0.0324,0.1060,0.0031,-0.0069,-0.0154,11.7523,-49.3301,-28.2242,207.0564,-33.6010,4.0595,40.74426527,-74.17786174,0.00000000,
1.047506,0.0598,0.5447,0.8292,-0.0776,-0.0195,0.0938,0.0031,-0.0069,-0.0154,11.7523,-49.3301,-28.2242,207.0564,-33.6010,4.0595,40.74426527,-74.17786174,0.00000000,
1.049337,0.0598,0.5447,0.8292,-0.0776,-0.0195,0.0938,0.0031,-0.0069,-0.0154,11.7523,-49.3301,-28.2242,207.1484,-33.5917,4.0218,40.74426527,-74.17786174,0.00000000,
1.061583,0.0598,0.5447,0.8292,-0.0776,-0.0195,0.0938,0.0031,-0.0069,-0.0154,11.2335,-48.5580,-27.6886,207.1484,-33.5917,4.0218,40.74426527,-74.17786174,0.00000000,
1.077050,0.0586,0.5499,0.8263,-0.0776,-0.0195,0.0938,0.0031,-0.0069,-0.0154,11.2335,-48.5580,-27.6886,207.1484,-33.5917,4.0218,40.74426527,-74.17786174,0.00000000,
1.078520,0.0571,0.5503,0.8231,-0.0776,-0.0195,0.0938,0.0031,-0.0069,-0.0154,11.2335,-48.5580,-27.6886,207.1484,-33.5917,4.0218,40.74426527,-74.17786174,0.00000000,
1.079841,0.0537,0.5482,0.8035,-0.0776,-0.0195,0.0938,0.0031,-0.0069,-0.0154,11.2335,-48.5580,-27.6886,207.1484,-33.5917,4.0218,40.74426527,-74.17786174,0.00000000,
1.095477,0.0537,0.5482,0.8035,-0.0776,-0.0195,0.0938,-0.0146,0.0037,-0.0081,11.2335,-48.5580,-27.6886,207.1484,-33.5917,4.0218,40.74426527,-74.17786174,0.00000000,
1.098066,0.0537,0.5482,0.8035,-0.1050,-0.0070,-0.0978,-0.0146,0.0037,-0.0081,11.2335,-48.5580,-27.6886,207.1484,-33.5917,4.0218,40.74426527,-74.17786174,0.00000000,
1.099929,0.0537,0.5482,0.8035,-0.1050,-0.0070,-0.0978,-0.0146,0.0037,-0.0081,11.2335,-48.5580,-27.6886,207.2029,-33.5597,3.9644,40.74426527,-74.17786174,0.00000000,
1.135062,0.0630,0.5425,0.8204,-0.1050,-0.0070,-0.0978,-0.0146,0.0037,-0.0081,11.2335,-48.5580,-27.6886,207.2029,-33.5597,3.9644,40.74426527,-74.17786174,0.00000000,
1.136171,0.0628,0.5499,0.8534,-0.1050,-0.0070,-0.0978,-0.0146,0.0037,-0.0081,11.2335,-48.5580,-27.6886,207.2029,-33.5597,3.9644,40.74426527,-74.17786174,0.00000000,
1.136831,0.0701,0.5513,0.8502,-0.1050,-0.0070,-0.0978,-0.0146,0.0037,-0.0081,11.2335,-48.5580,-27.6886,207.2029,-33.5597,3.9644,40.74426527,-74.17786174,0.00000000,
1.155005,0.0701,0.5513,0.8502,-0.1050,-0.0070,-0.0978,-0.0226,0.0271,-0.0069,11.2335,-48.5580,-27.6886,207.2029,-33.5597,3.9644,40.74426527,-74.17786174,0.00000000,
1.156953,0.0701,0.5513,0.8502,-0.0181,0.0472,0.1396,-0.0226,0.0271,-0.0069,11.2335,-48.5580,-27.6886,207.2029,-33.5597,3.9644,40.74426527,-74.17786174,0.00000000,
1.158382,0.0701,0.5513,0.8502,-0.0181,0.0472,0.1396,-0.0226,0.0271,-0.0069,11.2335,-48.5580,-27.6886,207.2247,-33.4704,3.8677,40.74426527,-74.17786174,0.00000000,
1.159920,0.0701,0.5513,0.8502,-0.0181,0.0472,0.1396,-0.0226,0.0271,-0.0069,11.0519,-48.4238,-28.4790,207.2247,-33.4704,3.8677,40.74426527,-74.17786174,0.00000000,
1.195755,0.0628,0.5540,0.8209,-0.0181,0.0472,0.1396,-0.0226,0.0271,-0.0069,11.0519,-48.4238,-28.4790,207.2247,-33.4704,3.8677,40.74426527,-74.17786174,0.00000000,
1.196986,0.0757,0.5477,0.8094,-0.0181,0.0472,0.1396,-0.0226,0.0271,-0.0069,11.0519,-48.4238,-28.4790,207.2247,-33.4704,3.8677,40.74426527,-74.17786174,0.00000000,
1.197707,0.0740,0.5486,0.8343,-0.0181,0.0472,0.1396,-0.0226,0.0271,-0.0069,11.0519,-48.4238,-28.4790,207.2247,-33.4704,3.8677,40.74426527,-74.17786174,0.00000000,
1.209724,0.0740,0.5486,0.8343,-0.0181,0.0472,0.1396,-0.0226,0.0271,-0.0069,12.2284,-47.7371,-27.5894,207.2247,-33.4704,3.8677,40.74426527,-74.17786174,0.00000000,
1.215070,0.0740,0.5486,0.8343,-0.0181,0.0472,0.1396,-0.0179,0.0356,0.0080,12.2284,-47.7371,-27.5894,207.2247,-33.4704,3.8677,40.74426527,-74.17786174,0.00000000,
1.219516,0.0740,0.5486,0.8343,-0.0181,0.0472,0.1396,-0.0179,0.0356,0.0080,12.2284,-47.7371,-27.5894,207.3908,-33.4241,3.8423,40.74426527,-74.17786174,0.00000000,
1.221836,0.0740,0.5486,0.8343,0.0789,0.0058,-0.0387,-0.0179,0.0356,0.0080,12.2284,-47.7371,-27.5894,207.3908,-33.4241,3.8423,40.74426527,-74.17786174,0.00000000,
1.251277,0.0742,0.5438,0.8267,0.0789,0.0058,-0.0387,-0.0179,0.0356,0.0080,12.2284,-47.7371,-27.5894,207.3908,-33.4241,3.8423,40.74426527,-74.17786174,0.00000000,
1.253260,0.0715,0.5462,0.8119,0.0789,0.0058,-0.0387,-0.0179,0.0356,0.0080,12.2284,-47.7371,-27.5894,207.3908,-33.4241,3.8423,40.74426527,-74.17786174,0.00000000,
1.255108,0.0759,0.5479,0.8243,0.0789,0.0058,-0.0387,-0.0179,0.0356,0.0080,12.2284,-47.7371,-27.5894,207.3908,-33.4241,3.8423,40.74426527,-74.17786174,0.00000000,
1.264005,0.0759,0.5479,0.8243,0.0789,0.0058,-0.0387,-0.0179,0.0356,0.0080,12.3352,-48.9929,-28.5599,207.3908,-33.4241,3.8423,40.74426527,-74.17786174,0.00000000,
1.270885,0.0759,0.5479,0.8243,0.0789,0.0058,-0.0387,-0.0399,0.0151,-0.0042,12.3352,-48.9929,-28.5599,207.3908,-33.4241,3.8423,40.74426527,-74.17786174,0.00000000,
1.272721,0.0759,0.5479,0.8243,0.0797,0.0211,-0.0013,-0.0399,0.0151,-0.0042,12.3352,-48.9929,-28.5599,207.3908,-33.4241,3.8423,40.74426527,-74.17786174,0.00000000,
1.274406,0.0759,0.5479,0.8243,0.0797,0.0211,-0.0013,-0.0399,0.0151,-0.0042,12.3352,-48.9929,-28.5599,207.5660,-33.3032,3.8505,40.74426527,-74.17786174,0.00000000,
1.309578,0.0772,0.5457,0.8497,0.0797,0.0211,-0.0013,-0.0399,0.0151,-0.0042,12.3352,-48.9929,-28.5599,207.5660,-33.3032,3.8505,40.74426527,-74.17786174,0.00000000,
1.311380,0.0703,0.5396,0.8565,0.0797,0.0211,-0.0013,-0.0399,0.0151,-0.0042,12.3352,-48.9929,-28.5599,207.5660,-33.3032,3.8505,40.74426527,-74.17786174,0.00000000,
1.312649,0.0689,0.5389,0.8487,0.0797,0.0211,-0.0013,-0.0399,0.0151,-0.0042,12.3352,-48.9929,-28.5599,207.5660,-33.3032,3.8505,40.74426527,-74.17786174,0.00000000,
1.331095,0.0689,0.5389,0.8487,0.0797,0.0211,-0.0013,-0.0128,0.0033,-0.0152,12.3352,-48.9929,-28.5599,207.5660,-33.3032,3.8505,40.74426527,-74.17786174,0.00000000,
1.334103,0.0689,0.5389,0.8487,0.0373,-0.0570,0.1581,-0.0128,0.0033,-0.0152,12.3352,-48.9929,-28.5599,207.5660,-33.3032,3.8505,40.74426527,-74.17786174,0.00000000,
1.336487,0.0689,0.5389,0.8487,0.0373,-0.0570,0.1581,-0.0128,0.0033,-0.0152,12.3352,-48.9929,-28.5599,207.6104,-33.2269,3.8216,40.74426527,-74.17786174,0.00000000,
1.358041,0.0689,0.5389,0.8487,0.0373,-0.0570,0.1581,-0.0128,0.0033,-0.0152,13.3926,-48.8998,-29.7882,207.6104,-33.2269,3.8216,40.74426527,-74.17786174,0.00000000,
1.370188,0.0711,0.5350,0.8328,0.0373,-0.0570,0.1581,-0.0128,0.0033,-0.0152,13.3926,-48.8998,-29.7882,207.6104,-33.2269,3.8216,40.74426527,-74.17786174,0.00000000,
1.374918,0.0725,0.5359,0.8250,0.0373,-0.0570,0.1581,-0.0128,0.0033,-0.0152,13.3926,-48.8998,-29.7882,207.6104,-33.2269,3.8216,40.74426527,-74.17786174,0.00000000,
1.380128,0.0662,0.5306,0.8138,0.0373,-0.0570,0.1581,-0.0128,0.0033,-0.0152,13.3926,-48.8998,-29.7882,207.6104,-33.2269,3.8216,40.74426527,-74.17786174,0.00000000,
1.391063,0.0662,0.5306,0.8138,0.0373,-0.0570,0.1581,-0.0103,0.0049,-0.0242,13.3926,-48.8998,-29.7882,207.6104,-33.2269,3.8216,40.74426527,-74.17786174,0.00000000,
1.396807,0.0662,0.5306,0.8138,0.0071,-0.0946,-0.1078,-0.0103,0.0049,-0.0242,13.3926,-48.8998,-29.7882,207.6104,-33.2269,3.8216,40.74426527,-74.17786174,0.00000000,
1.399875,0.0662,0.5306,0.8138,0.0071,-0.0946,-0.1078,-0.0103,0.0049,-0.0242,13.3926,-48.8998,-29.7882,207.9137,-33.1813,3.7758,40.74426527,-74.17786174,0.00000000,
1.411069,0.0662,0.5306,0.8138,0.0071,-0.0946,-0.1078,-0.0103,0.0049,-0.0242,14.1113,-48.9639,-30.2750,207.9137,-33.1813,3.7758,40.74426527,-74.17786174,0.00000000,
1.426812,0.0596,0.5306,0.8148,0.0071,-0.0946,-0.1078,-0.0103,0.0049,-0.0242,14.1113,-48.9639,-30.2750,207.9137,-33.1813,3.7758,40.74426527,-74.17786174,0.00000000,
1.429834,0.0554,0.5301,0.8233,0.0071,-0.0946,-0.1078,-0.0103,0.0049,-0.0242,14.1113,-48.9639,-30.2750,207.9137,-33.1813,3.7758,40.74426527,-74.17786174,0.00000000,
1.431598,0.0579,0.5318,0.8353,0.0071,-0.0946,-0.1078,-0.0103,0.0049,-0.0242,14.1113,-48.9639,-30.2750,207.9137,-33.1813,3.7758,40.74426527,-74.17786174,0.00000000,
1.447803,0.0579,0.5318,0.8353,0.0071,-0.0946,-0.1078,-0.0323,0.0130,-0.0071,14.1113,-48.9639,-30.2750,207.9137,-33.1813,3.7758,40.74426527,-74.17786174,0.00000000,
1.450602,0.0579,0.5318,0.8353,0.0071,-0.0946,-0.1078,-0.0323,0.0130,-0.0071,14.1113,-48.9639,-30.2750,208.1841,-33.0519,3.7105,40.74426527,-74.17786174,0.00000000,
1.453327,0.0579,0.5318,0.8353,-0.0686,-0.1024,-0.0003,-0.0323,0.0130,-0.0071,14.1113,-48.9639,-30.2750,208.1841,-33.0519,3.7105,40.74426527,-74.17786174,0.00000000,
1.456697,0.0579,0.5318,0.8353,-0.0686,-0.1024,-0.0003,-0.0323,0.0130,-0.0071,15.1917,-49.7543,-31.0150,208.1841,-33.0519,3.7105,40.74426527,-74.17786174,0.00000000,
1.484863,0.0584,0.5269,0.8311,-0.0686,-0.1024,-0.0003,-0.0323,0.0130,-0.0071,15.1917,-49.7543,-31.0150,208.1841,-33.0519,3.7105,40.74426527,-74.17786174,0.00000000,
1.486692,0.0654,0.5286,0.8206,-0.0686,-0.1024,-0.0003,-0.0323,0.0130,-0.0071,15.1917,-49.7543,-31.0150,208.1841,-33.0519,3.7105,40.74426527,-74.17786174,0.00000000,
1.488655,0.0718,0.5337,0.8148,-0.0686,-0.1024,-0.0003,-0.0323,0.0130,-0.0071,15.1917,-49.7543,-31.0150,208.1841,-33.0519,3.7105,40.74426527,-74.17786174,0.00000000,
1.504456,0.0718,0.5337,0.8148,-0.0686,-0.1024,-0.0003,-0.0441,-0.0159,0.0196,15.1917,-49.7543,-31.0150,208.1841,-33.0519,3.7105,40.74426527,-74.17786174,0.00000000,
1.508661,0.0718,0.5337,0.8148,-0.0686,-0.1024,-0.0003,-0.0441,-0.0159,0.0196,15.1917,-49.7543,-31.0150,208.4609,-32.9238,3.8078,40.74426527,-74.17786174,0.00000000,
1.510375,0.0718,0.5337,0.8148,0.0149,-0.0441,-0.1210,-0.0441,-0.0159,0.0196,15.1917,-49.7543,-31.0150,208.4609,-32.9238,3.8078,40.74426527,-74.17786174,0.00000000,
1.542976,0.0647,0.5359,0.8167,0.0149,-0.0441,-0.1210,-0.0441,-0.0159,0.0196,15.1917,-49.7543,-31.0150,208.4609,-32.9238,3.8078,40.74426527,-74.17786174,0.00000000,
1.544876,0.0669,0.5364,0.8485,0.0149,-0.0441,-0.1210,-0.0441,-0.0159,0.0196,15.1917,-49.7543,-31.0150,208.4609,-32.9238,3.8078,40.74426527,-74.17786174,0.00000000,
1.546417,0.0794,0.5328,0.8770,0.0149,-0.0441,-0.1210,-0.0441,-0.0159,0.0196,15.1917,-49.7543,-31.0150,208.4609,-32.9238,3.8078,40.74426527,-74.17786174,0.00000000,
1.557459,0.0794,0.5328,0.8770,0.0149,-0.0441,-0.1210,-0.0441,-0.0159,0.0196,14.9200,-51.2039,-32.6477,208.4609,-32.9238,3.8078,40.74426527,-74.17786174,0.00000000,
1.563107,0.0794,0.5328,0.8770,0.0149,-0.0441,-0.1210,-0.0851,-0.0014,0.0650,14.9200,-51.2039,-32.6477,208.4609,-32.9238,3.8078,40.74426527,-74.17786174,0.00000000,
1.564724,0.0794,0.5328,0.8770,0.0149,-0.0441,-0.1210,-0.0851,-0.0014,0.0650,14.9200,-51.2039,-32.6477,208.4744,-32.5789,3.9419,40.74426527,-74.17786174,0.00000000,
1.566559,0.0794,0.5328,0.8770,0.0790,0.0104,0.4092,-0.0851,-0.0014,0.0650,14.9200,-51.2039,-32.6477,208.4744,-32.5789,3.9419,40.74426527,-74.17786174,0.00000000,
1.601386,0.0825,0.5328,0.9017,0.0790,0.0104,0.4092,-0.0851,-0.0014,0.0650,14.9200,-51.2039,-32.6477,208.4744,-32.5789,3.9419,40.74426527,-74.17786174,0.00000000,
1.603089,0.0767,0.5364,0.8914,0.0790,0.0104,0.4092,-0.0851,-0.0014,0.0650,14.9200,-51.2039,-32.6477,208.4744,-32.5789,3.9419,40.74426527,-74.17786174,0.00000000,
1.607018,0.0784,0.5355,0.8575,0.0790,0.0104,0.4092,-0.0851,-0.0014,0.0650,14.9200,-51.2039,-32.6477,208.4744,-32.5789,3.9419,40.74426527,-74.17786174,0.00000000,
1.610594,0.0784,0.5355,0.8575,0.0790,0.0104,0.4092,-0.0851,-0.0014,0.0650,16.2903,-50.4654,-33.3313,208.4744,-32.5789,3.9419,40.74426527,-74.17786174,0.00000000,
1.622886,0.0784,0.5355,0.8575,0.0579,0.0155,0.2465,-0.0851,-0.0014,0.0650,16.2903,-50.4654,-33.3313,208.4744,-32.5789,3.9419,40.74426527,-74.17786174,0.00000000,
1.625749,0.0784,0.5355,0.8575,0.0579,0.0155,0.2465,0.0066,-0.0407,0.0011,16.2903,-50.4654,-33.3313,208.4744,-32.5789,3.9419,40.74426527,-74.17786174,0.00000000,
1.626962,0.0784,0.5355,0.8575,0.0579,0.0155,0.2465,0.0066,-0.0407,0.0011,16.2903,-50.4654,-33.3313,208.8687,-32.5797,4.0679,40.74426527,-74.17786174,0.00000000,
1.656454,0.0784,0.5355,0.8575,0.0579,0.0155,0.2465,0.0066,-0.0407,0.0011,15.8188,-50.3937,-34.2697,208.8687,-32.5797,4.0679,40.74426527,-74.17786174,0.00000000,
1.660810,0.0740,0.5328,0.8302,0.0579,0.0155,0.2465,0.0066,-0.0407,0.0011,15.8188,-50.3937,-34.2697,208.8687,-32.5797,4.0679,40.74426527,-74.17786174,0.00000000,
1.662281,0.0691,0.5320,0.8363,0.0579,0.0155,0.2465,0.0066,-0.0407,0.0011,15.8188,-50.3937,-34.2697,208.8687,-32.5797,4.0679,40.74426527,-74.17786174,0.00000000,
1.663751,0.0652,0.5301,0.8490,0.0579,0.0155,0.2465,0.0066,-0.0407,0.0011,15.8188,-50.3937,-34.2697,208.8687,-32.5797,4.0679,40.74426527,-74.17786174,0.00000000,
1.680833,0.0652,0.5301,0.8490,0.0579,0.0155,0.2465,0.0027,0.0002,-0.0394,15.8188,-50.3937,-34.2697,208.8687,-32.5797,4.0679,40.74426527,-74.17786174,0.00000000,
1.682553,0.0652,0.5301,0.8490,0.0579,0.0155,0.2465,0.0027,0.0002,-0.0394,15.8188,-50.3937,-34.2697,209.3974,-32.5769,3.9909,40.74426527,-74.17786174,0.00000000,
1.683606,0.0652,0.5301,0.8490,-0.0202,-0.0324,0.1218,0.0027,0.0002,-0.0394,15.8188,-50.3937,-34.2697,209.3974,-32.5769,3.9909,40.74426527,-74.17786174,0.00000000,
1.717865,0.0669,0.5284,0.8568,-0.0202,-0.0324,0.1218,0.0027,0.0002,-0.0394,15.8188,-50.3937,-34.2697,209.3974,-32.5769,3.9909,40.74426527,-74.17786174,0.00000000,
1.719103,0.0693,0.5347,0.8556,-0.0202,-0.0324,0.1218,0.0027,0.0002,-0.0394,15.8188,-50.3937,-34.2697,209.3974,-32.5769,3.9909,40.74426527,-74.17786174,0.00000000,
1.720040,0.0691,0.5374,0.8297,-0.0202,-0.0324,0.1218,0.0027,0.0002,-0.0394,15.8188,-50.3937,-34.2697,209.3974,-32.5769,3.9909,40.74426527,-74.17786174,0.00000000,
1.738527,0.0691,0.5374,0.8297,-0.0202,-0.0324,0.1218,0.0320,0.0318,-0.0317,15.8188,-50.3937,-34.2697,209.3974,-32.5769,3.9909,40.74426527,-74.17786174,0.00000000,
1.740219,0.0691,0.5374,0.8297,0.0014,-0.0034,-0.0059,0.0320,0.0318,-0.0317,15.8188,-50.3937,-34.2697,209.3974,-32.5769,3.9909,40.74426527,-74.17786174,0.00000000,
1.741256,0.0691,0.5374,0.8297,0.0014,-0.0034,-0.0059,0.0320,0.0318,-0.0317,15.8188,-50.3937,-34.2697,209.5127,-32.6862,3.8447,40.74426527,-74.17786174,0.00000000,
1.756867,0.0691,0.5374,0.8297,0.0014,-0.0034,-0.0059,0.0320,0.0318,-0.0317,15.3961,-51.6403,-35.4813,209.5127,-32.6862,3.8447,40.74426527,-74.17786174,0.00000000,
1.776695,0.0618,0.5323,0.8150,0.0014,-0.0034,-0.0059,0.0320,0.0318,-0.0317,15.3961,-51.6403,-35.4813,209.5127,-32.6862,3.8447,40.74426527,-74.17786174,0.00000000,
1.778161,0.0628,0.5284,0.8375,0.0014,-0.0034,-0.0059,0.0320,0.0318,-0.0317,15.3961,-51.6403,-35.4813,209.5127,-32.6862,3.8447,40.74426527,-74.17786174,0.00000000,
1.779578,0.0833,0.5281,0.8536,0.0014,-0.0034,-0.0059,0.0320,0.0318,-0.0317,15.3961,-51.6403,-35.4813,209.5127,-32.6862,3.8447,40.74426527,-74.17786174,0.00000000,
1.795849,0.0833,0.5281,0.8536,0.0014,-0.0034,-0.0059,0.0088,-0.0163,0.0332,15.3961,-51.6403,-35.4813,209.5127,-32.6862,3.8447,40.74426527,-74.17786174,0.00000000,
1.796772,0.0833,0.5281,0.8536,0.1345,-0.0802,0.1249,0.0088,-0.0163,0.0332,15.3961,-51.6403,-35.4813,209.5127,-32.6862,3.8447,40.74426527,-74.17786174,0.00000000,
1.797337,0.0833,0.5281,0.8536,0.1345,-0.0802,0.1249,0.0088,-0.0163,0.0332,15.3961,-51.6403,-35.4813,209.6862,-32.6847,3.9762,40.74426527,-74.17786174,0.00000000,
1.805245,0.0833,0.5281,0.8536,0.1345,-0.0802,0.1249,0.0088,-0.0163,0.0332,15.3656,-52.5711,-34.4330,209.6862,-32.6847,3.9762,40.74426527,-74.17786174,0.00000000,
1.834745,0.1018,0.5245,0.8495,0.1345,-0.0802,0.1249,0.0088,-0.0163,0.0332,15.3656,-52.5711,-34.4330,209.6862,-32.6847,3.9762,40.74426527,-74.17786174,0.00000000,
1.836064,0.1065,0.5220,0.8612,0.1345,-0.0802,0.1249,0.0088,-0.0163,0.0332,15.3656,-52.5711,-34.4330,209.6862,-32.6847,3.9762,40.74426527,-74.17786174,0.00000000,
1.837037,0.1035,0.5201,0.8409,0.1345,-0.0802,0.1249,0.0088,-0.0163,0.0332,15.3656,-52.5711,-34.4330,209.6862,-32.6847,3.9762,40.74426527,-74.17786174,0.00000000,
1.854267,0.1035,0.5201,0.8409,0.1345,-0.0802,0.1249,0.0650,-0.0405,0.0070,15.3656,-52.5711,-34.4330,209.6862,-32.6847,3.9762,40.74426527,-74.17786174,0.00000000,
1.855837,0.1035,0.5201,0.8409,0.2818,-0.1661,0.0306,0.0650,-0.0405,0.0070,15.3656,-52.5711,-34.4330,209.6862,-32.6847,3.9762,40.74426527,-74.17786174,0.00000000,
1.857220,0.1035,0.5201,0.8409,0.2818,-0.1661,0.0306,0.0650,-0.0405,0.0070,15.3656,-52.5711,-34.4330,209.8871,-32.8761,4.1569,40.74426527,-74.17786174,0.00000000,
1.858908,0.1035,0.5201,0.8409,0.2818,-0.1661,0.0306,0.0650,-0.0405,0.0070,15.2100,-52.9938,-34.1827,209.8871,-32.8761,4.1569,40.74426527,-74.17786174,0.00000000,
1.893816,0.0923,0.5203,0.8033,0.2818,-0.1661,0.0306,0.0650,-0.0405,0.0070,15.2100,-52.9938,-34.1827,209.8871,-32.8761,4.1569,40.74426527,-74.17786174,0.00000000,
1.896448,0.0911,0.5193,0.8057,0.2818,-0.1661,0.0306,0.0650,-0.0405,0.0070,15.2100,-52.9938,-34.1827,209.8871,-32.8761,4.1569,40.74426527,-74.17786174,0.00000000,
1.899047,0.0921,0.5286,0.8321,0.2818,-0.1661,0.0306,0.0650,-0.0405,0.0070,15.2100,-52.9938,-34.1827,209.8871,-32.8761,4.1569,40.74426527,-74.17786174,0.00000000,
1.920717,0.0921,0.5286,0.8321,0.2818,-0.1661,0.0306,0.0259,-0.0810,-0.0052,15.2100,-52.9938,-34.1827,209.8871,-32.8761,4.1569,40.74426527,-74.17786174,0.00000000,
1.925825,0.0921,0.5286,0.8321,0.2818,-0.1661,0.0306,0.0259,-0.0810,-0.0052,15.2100,-52.9938,-34.1827,210.1178,-32.9629,4.4070,40.74426527,-74.17786174,0.00000000,
1.932575,0.0921,0.5286,0.8321,0.1655,-0.1230,-0.0714,0.0259,-0.0810,-0.0052,15.2100,-52.9938,-34.1827,210.1178,-32.9629,4.4070,40.74426527,-74.17786174,0.00000000,
1.952734,0.0964,0.5303,0.8321,0.1655,-0.1230,-0.0714,0.0259,-0.0810,-0.0052,15.2100,-52.9938,-34.1827,210.1178,-32.9629,4.4070,40.74426527,-74.17786174,0.00000000,
1.957301,0.0901,0.5330,0.8424,0.1655,-0.1230,-0.0714,0.0259,-0.0810,-0.0052,15.2100,-52.9938,-34.1827,210.1178,-32.9629,4.4070,40.74426527,-74.17786174,0.00000000,
1.962215,0.0823,0.5352,0.8697,0.1655,-0.1230,-0.0714,0.0259,-0.0810,-0.0052,15.2100,-52.9938,-34.1827,210.1178,-32.9629,4.4070,40.74426527,-74.17786174,0.00000000,
1.964075,0.0823,0.5352,0.8697,0.1655,-0.1230,-0.0714,0.0259,-0.0810,-0.0052,15.3366,-51.3214,-34.0286,210.1178,-32.9629,4.4070,40.74426527,-74.17786174,0.00000000,
1.971848,0.0823,0.5352,0.8697,0.0319,-0.0206,0.2402,0.0259,-0.0810,-0.0052,15.3366,-51.3214,-34.0286,210.1178,-32.9629,4.4070,40.74426527,-74.17786174,0.00000000,
1.976413,0.0823,0.5352,0.8697,0.0319,-0.0206,0.2402,0.0021,-0.0723,-0.0405,15.3366,-51.3214,-34.0286,210.1178,-32.9629,4.4070,40.74426527,-74.17786174,0.00000000,
1.979707,0.0823,0.5352,0.8697,0.0319,-0.0206,0.2402,0.0021,-0.0723,-0.0405,15.3366,-51.3214,-34.0286,210.5337,-32.9626,4.5392,40.74426527,-74.17786174,0.00000000,
2.005881,0.0823,0.5352,0.8697,0.0319,-0.0206,0.2402,0.0021,-0.0723,-0.0405,14.1174,-50.2945,-34.7412,210.5337,-32.9626,4.5392,40.74426527,-74.17786174,0.00000000,
2.013109,0.0732,0.5420,0.8543,0.0319,-0.0206,0.2402,0.0021,-0.0723,-0.0405,14.1174,-50.2945,-34.7412,210.5337,-32.9626,4.5392,40.74426527,-74.17786174,0.00000000,
2.020288,0.0730,0.5433,0.8070,0.0319,-0.0206,0.2402,0.0021,-0.0723,-0.0405,14.1174,-50.2945,-34.7412,210.5337,-32.9626,4.5392,40.74426527,-74.17786174,0.00000000,
2.022867,0.0833,0.5452,0.8014,0.0319,-0.0206,0.2402,0.0021,-0.0723,-0.0405,14.1174,-50.2945,-34.7412,210.5337,-32.9626,4.5392,40.74426527,-74.17786174,0.00000000,
2.031555,0.0833,0.5452,0.8014,0.0319,-0.0206,0.2402,0.0558,-0.0489,-0.0284,14.1174,-50.2945,-34.7412,210.5337,-32.9626,4.5392,40.74426527,-74.17786174,0.00000000,
2.036599,0.0833,0.5452,0.8014,-0.0296,0.0196,-0.2374,0.0558,-0.0489,-0.0284,14.1174,-50.2945,-34.7412,210.5337,-32.9626,4.5392,40.74426527,-74.17786174,0.00000000,
2.039208,0.0833,0.5452,0.8014,-0.0296,0.0196,-0.2374,0.0558,-0.0489,-0.0284,14.1174,-50.2945,-34.7412,210.8773,-33.1883,4.6219,40.74426527,-74.17786174,0.00000000,
2.055526,0.0833,0.5452,0.8014,-0.0296,0.0196,-0.2374,0.0558,-0.0489,-0.0284,16.4871,-49.1898,-35.0052,210.8773,-33.1883,4.6219,40.74426527,-74.17786174,0.00000000,
2.069229,0.0747,0.5428,0.8038,-0.0296,0.0196,-0.2374,0.0558,-0.0489,-0.0284,16.4871,-49.1898,-35.0052,210.8773,-33.1883,4.6219,40.74426527,-74.17786174,0.00000000,
2.071148,0.0713,0.5291,0.8101,-0.0296,0.0196,-0.2374,0.0558,-0.0489,-0.0284,16.4871,-49.1898,-35.0052,210.8773,-33.1883,4.6219,40.74426527,-74.17786174,0.00000000,
2.072671,0.0679,0.5191,0.8233,-0.0296,0.0196,-0.2374,0.0558,-0.0489,-0.0284,16.4871,-49.1898,-35.0052,210.8773,-33.1883,4.6219,40.74426527,-74.17786174,0.00000000,
2.088430,0.0679,0.5191,0.8233,-0.0296,0.0196,-0.2374,0.0277,0.0100,-0.0060,16.4871,-49.1898,-35.0052,210.8773,-33.1883,4.6219,40.74426527,-74.17786174,0.00000000,
2.091277,0.0679,0.5191,0.8233,-0.0720,-0.2305,-0.0407,0.0277,0.0100,-0.0060,16.4871,-49.1898,-35.0052,210.8773,-33.1883,4.6219,40.74426527,-74.17786174,0.00000000,
2.093709,0.0679,0.5191,0.8233,-0.0720,-0.2305,-0.0407,0.0277,0.0100,-0.0060,16.4871,-49.1898,-35.0052,211.3133,-33.2521,4.5730,40.74426527,-74.17786174,0.00000000,
2.128989,0.0762,0.5086,0.8360,-0.0720,-0.2305,-0.0407,0.0277,0.0100,-0.0060,16.4871,-49.1898,-35.0052,211.3133,-33.2521,4.5730,40.74426527,-74.17786174,0.00000000,
2.131412,0.0740,0.5040,0.8214,-0.0720,-0.2305,-0.0407,0.0277,0.0100,-0.0060,16.4871,-49.1898,-35.0052,211.3133,-33.2521,4.5730,40.74426527,-74.17786174,0.00000000,
2.132990,0.0781,0.5084,0.8079,-0.0720,-0.2305,-0.0407,0.0277,0.0100,-0.0060,16.4871,-49.1898,-35.0052,211.3133,-33.2521,4.5730,40.74426527,-74.17786174,0.00000000,
2.147354,0.0781,0.5084,0.8079,0.0376,-0.3156,-0.0883,0.0277,0.0100,-0.0060,16.4871,-49.1898,-35.0052,211.3133,-33.2521,4.5730,40.74426527,-74.17786174,0.00000000,
2.149423,0.0781,0.5084,0.8079,0.0376,-0.3156,-0.0883,0.0196,0.0244,-0.0005,16.4871,-49.1898,-35.0052,211.3133,-33.2521,4.5730,40.74426527,-74.17786174,0.00000000,
2.151111,0.0781,0.5084,0.8079,0.0376,-0.3156,-0.0883,0.0196,0.0244,-0.0005,16.4871,-49.1898,-35.0052,211.2840,-33.2789,4.5130,40.74426527,-74.17786174,0.00000000,
2.155344,0.0781,0.5084,0.8079,0.0376,-0.3156,-0.0883,0.0196,0.0244,-0.0005,15.7852,-50.0061,-37.4756,211.2840,-33.2789,4.5130,40.74426527,-74.17786174,0.00000000,
2.185482,0.0935,0.5186,0.8233,0.0376,-0.3156,-0.0883,0.0196,0.0244,-0.0005,15.7852,-50.0061,-37.4756,211.2840,-33.2789,4.5130,40.74426527,-74.17786174,0.00000000,
2.187324,0.0864,0.5276,0.8311,0.0376,-0.3156,-0.0883,0.0196,0.0244,-0.0005,15.7852,-50.0061,-37.4756,211.2840,-33.2789,4.5130,40.74426527,-74.17786174,0.00000000,
2.188606,0.0798,0.5313,0.8121,0.0376,-0.3156,-0.0883,0.0196,0.0244,-0.0005,15.7852,-50.0061,-37.4756,211.2840,-33.2789,4.5130,40.74426527,-74.17786174,0.00000000,
2.205549,0.0798,0.5313,0.8121,0.0376,-0.3156,-0.0883,0.0076,0.0258,-0.0250,15.7852,-50.0061,-37.4756,211.2840,-33.2789,4.5130,40.74426527,-74.17786174,0.00000000,
2.209810,0.0798,0.5313,0.8121,0.0662,-0.0975,-0.0832,0.0076,0.0258,-0.0250,15.7852,-50.0061,-37.4756,211.2840,-33.2789,4.5130,40.74426527,-74.17786174,0.00000000,
2.213244,0.0798,0.5313,0.8121,0.0662,-0.0975,-0.0832,0.0076,0.0258,-0.0250,15.7852,-50.0061,-37.4756,211.8144,-33.3002,4.4069,40.74426527,-74.17786174,0.00000000,
2.215556,0.0798,0.5313,0.8121,0.0662,-0.0975,-0.0832,0.0076,0.0258,-0.0250,15.2420,-51.4969,-39.2319,211.8144,-33.3002,4.4069,40.74426527,-74.17786174,0.00000000,
2.245812,0.0825,0.5394,0.8099,0.0662,-0.0975,-0.0832,0.0076,0.0258,-0.0250,15.2420,-51.4969,-39.2319,211.8144,-33.3002,4.4069,40.74426527,-74.17786174,0.00000000,
2.249129,0.0991,0.5494,0.8214,0.0662,-0.0975,-0.0832,0.0076,0.0258,-0.0250,15.2420,-51.4969,-39.2319,211.8144,-33.3002,4.4069,40.74426527,-74.17786174,0.00000000,
2.251865,0.1016,0.5543,0.8321,0.0662,-0.0975,-0.0832,0.0076,0.0258,-0.0250,15.2420,-51.4969,-39.2319,211.8144,-33.3002,4.4069,40.74426527,-74.17786174,0.00000000,
2.257212,0.1016,0.5543,0.8321,0.0662,-0.0975,-0.0832,0.0076,0.0258,-0.0250,14.6805,-50.6729,-39.3951,211.8144,-33.3002,4.4069,40.74426527,-74.17786174,0.00000000,
2.264541,0.1016,0.5543,0.8321,0.0662,-0.0975,-0.0832,0.0076,0.0258,-0.0250,14.6805,-50.6729,-39.3951,212.4711,-33.3564,4.4118,40.74426527,-74.17786174,0.00000000,
2.266791,0.1016,0.5543,0.8321,0.2430,0.0734,0.0561,0.0076,0.0258,-0.0250,14.6805,-50.6729,-39.3951,212.4711,-33.3564,4.4118,40.74426527,-74.17786174,0.00000000,
2.268369,0.1016,0.5543,0.8321,0.2430,0.0734,0.0561,0.0175,0.0234,0.0184,14.6805,-50.6729,-39.3951,212.4711,-33.3564,4.4118,40.74426527,-74.17786174,0.00000000,
2.303167,0.1025,0.5499,0.8414,0.2430,0.0734,0.0561,0.0175,0.0234,0.0184,14.6805,-50.6729,-39.3951,212.4711,-33.3564,4.4118,40.74426527,-74.17786174,0.00000000,
2.305550,0.1013,0.5525,0.8480,0.2430,0.0734,0.0561,0.0175,0.0234,0.0184,14.6805,-50.6729,-39.3951,212.4711,-33.3564,4.4118,40.74426527,-74.17786174,0.00000000,
2.307277,0.0991,0.5569,0.8338,0.2430,0.0734,0.0561,0.0175,0.0234,0.0184,14.6805,-50.6729,-39.3951,212.4711,-33.3564,4.4118,40.74426527,-74.17786174,0.00000000,
2.322701,0.0991,0.5569,0.8338,0.2174,0.1016,0.0734,0.0175,0.0234,0.0184,14.6805,-50.6729,-39.3951,212.4711,-33.3564,4.4118,40.74426527,-74.17786174,0.00000000,
2.325708,0.0991,0.5569,0.8338,0.2174,0.1016,0.0734,0.0613,0.0191,0.0166,14.6805,-50.6729,-39.3951,212.4711,-33.3564,4.4118,40.74426527,-74.17786174,0.00000000,
2.327814,0.0991,0.5569,0.8338,0.2174,0.1016,0.0734,0.0613,0.0191,0.0166,14.6805,-50.6729,-39.3951,212.4101,-33.5618,4.4203,40.74426527,-74.17786174,0.00000000,
2.356319,0.0991,0.5569,0.8338,0.2174,0.1016,0.0734,0.0613,0.0191,0.0166,13.1516,-49.5224,-39.4165,212.4101,-33.5618,4.4203,40.74426527,-74.17786174,0.00000000,
2.366528,0.0955,0.5621,0.8133,0.2174,0.1016,0.0734,0.0613,0.0191,0.0166,13.1516,-49.5224,-39.4165,212.4101,-33.5618,4.4203,40.74426527,-74.17786174,0.00000000,
2.370277,0.1006,0.5545,0.8065,0.2174,0.1016,0.0734,0.0613,0.0191,0.0166,13.1516,-49.5224,-39.4165,212.4101,-33.5618,4.4203,40.74426527,-74.17786174,0.00000000,
2.374528,0.0974,0.5452,0.8382,0.2174,0.1016,0.0734,0.0613,0.0191,0.0166,13.1516,-49.5224,-39.4165,212.4101,-33.5618,4.4203,40.74426527,-74.17786174,0.00000000,
2.382723,0.0974,0.5452,0.8382,0.1922,-0.0176,0.0984,0.0613,0.0191,0.0166,13.1516,-49.5224,-39.4165,212.4101,-33.5618,4.4203,40.74426527,-74.17786174,0.00000000,
2.384912,0.0974,0.5452,0.8382,0.1922,-0.0176,0.0984,0.0613,0.0191,0.0166,13.1516,-49.5224,-39.4165,212.5938,-33.7016,4.5116,40.74426527,-74.17786174,0.00000000,
2.386674,0.0974,0.5452,0.8382,0.1922,-0.0176,0.0984,0.0461,-0.0073,0.0235,13.1516,-49.5224,-39.4165,212.5938,-33.7016,4.5116,40.74426527,-74.17786174,0.00000000,
2.405994,0.0974,0.5452,0.8382,0.1922,-0.0176,0.0984,0.0461,-0.0073,0.0235,11.3693,-46.5179,-38.3896,212.5938,-33.7016,4.5116,40.74426527,-74.17786174,0.00000000,
2.419623,0.0950,0.5416,0.8543,0.1922,-0.0176,0.0984,0.0461,-0.0073,0.0235,11.3693,-46.5179,-38.3896,212.5938,-33.7016,4.5116,40.74426527,-74.17786174,0.00000000,
2.423586,0.0872,0.5467,0.7967,0.1922,-0.0176,0.0984,0.0461,-0.0073,0.0235,11.3693,-46.5179,-38.3896,212.5938,-33.7016,4.5116,40.74426527,-74.17786174,0.00000000,
2.426063,0.0918,0.5545,0.7183,0.1922,-0.0176,0.0984,0.0461,-0.0073,0.0235,11.3693,-46.5179,-38.3896,212.5938,-33.7016,4.5116,40.74426527,-74.17786174,0.00000000,
2.440744,0.0918,0.5545,0.7183,0.1922,-0.0176,0.0984,0.0910,0.0014,-0.0185,11.3693,-46.5179,-38.3896,212.5938,-33.7016,4.5116,40.74426527,-74.17786174,0.00000000,
2.443565,0.0918,0.5545,0.7183,0.1535,0.0446,-0.6748,0.0910,0.0014,-0.0185,11.3693,-46.5179,-38.3896,212.5938,-33.7016,4.5116,40.74426527,-74.17786174,0.00000000,
2.445905,0.0918,0.5545,0.7183,0.1535,0.0446,-0.6748,0.0910,0.0014,-0.0185,11.3693,-46.5179,-38.3896,212.9586,-34.0697,4.5012,40.74426527,-74.17786174,0.00000000,
2.456244,0.0918,0.5545,0.7183,0.1535,0.0446,-0.6748,0.0910,0.0014,-0.0185,10.8688,-43.7683,-37.3337,212.9586,-34.0697,4.5012,40.74426527,-74.17786174,0.00000000,
2.479805,0.1013,0.5728,0.7335,0.1535,0.0446,-0.6748,0.0910,0.0014,-0.0185,10.8688,-43.7683,-37.3337,212.9586,-34.0697,4.5012,40.74426527,-74.17786174,0.00000000,
2.482594,0.0979,0.5894,0.8050,0.1535,0.0446,-0.6748,0.0910,0.0014,-0.0185,10.8688,-43.7683,-37.3337,212.9586,-34.0697,4.5012,40.74426527,-74.17786174,0.00000000,
2.484331,0.0928,0.5955,0.8277,0.1535,0.0446,-0.6748,0.0910,0.0014,-0.0185,10.8688,-43.7683,-37.3337,212.9586,-34.0697,4.5012,40.74426527,-74.17786174,0.00000000,
2.497055,0.0928,0.5955,0.8277,0.1535,0.0446,-0.6748,-0.0682,0.0027,-0.0557,10.8688,-43.7683,-37.3337,212.9586,-34.0697,4.5012,40.74426527,-74.17786174,0.00000000,
2.500964,0.0928,0.5955,0.8277,0.1535,0.0446,-0.6748,-0.0682,0.0027,-0.0557,10.8688,-43.7683,-37.3337,213.5576,-33.8959,4.4061,40.74426527,-74.17786174,0.00000000,
2.502749,0.0928,0.5955,0.8277,0.1372,0.3926,0.0403,-0.0682,0.0027,-0.0557,10.8688,-43.7683,-37.3337,213.5576,-33.8959,4.4061,40.74426527,-74.17786174,0.00000000,
2.535070,0.0798,0.5894,0.8416,0.1372,0.3926,0.0403,-0.0682,0.0027,-0.0557,10.8688,-43.7683,-37.3337,213.5576,-33.8959,4.4061,40.74426527,-74.17786174,0.00000000,
2.536259,0.0708,0.5787,0.8751,0.1372,0.3926,0.0403,-0.0682,0.0027,-0.0557,10.8688,-43.7683,-37.3337,213.5576,-33.8959,4.4061,40.74426527,-74.17786174,0.00000000,
2.537305,0.0713,0.5660,0.8827,0.1372,0.3926,0.0403,-0.0682,0.0027,-0.0557,10.8688,-43.7683,-37.3337,213.5576,-33.8959,4.4061,40.74426527,-74.17786174,0.00000000,
2.555532,0.0713,0.5660,0.8827,0.1372,0.3926,0.0403,-0.0224,0.0297,0.0043,10.8688,-43.7683,-37.3337,213.5576,-33.8959,4.4061,40.74426527,-74.17786174,0.00000000,
2.557939,0.0713,0.5660,0.8827,0.1372,0.3926,0.0403,-0.0224,0.0297,0.0043,11.6074,-43.3975,-35.6277,213.5576,-33.8959,4.4061,40.74426527,-74.17786174,0.00000000,
2.562763,0.0713,0.5660,0.8827,-0.0407,0.1673,0.4506,-0.0224,0.0297,0.0043,11.6074,-43.3975,-35.6277,213.5576,-33.8959,4.4061,40.74426527,-74.17786174,0.00000000,
2.564369,0.0713,0.5660,0.8827,-0.0407,0.1673,0.4506,-0.0224,0.0297,0.0043,11.6074,-43.3975,-35.6277,213.5258,-33.8007,4.3212,40.74426527,-74.17786174,0.00000000,
2.594560,0.0698,0.5587,0.8480,-0.0407,0.1673,0.4506,-0.0224,0.0297,0.0043,11.6074,-43.3975,-35.6277,213.5258,-33.8007,4.3212,40.74426527,-74.17786174,0.00000000,
2.596936,0.0781,0.5535,0.8223,-0.0407,0.1673,0.4506,-0.0224,0.0297,0.0043,11.6074,-43.3975,-35.6277,213.5258,-33.8007,4.3212,40.74426527,-74.17786174,0.00000000,
2.598531,0.0803,0.5547,0.8070,-0.0407,0.1673,0.4506,-0.0224,0.0297,0.0043,11.6074,-43.3975,-35.6277,213.5258,-33.8007,4.3212,40.74426527,-74.17786174,0.00000000,
2.605173,0.0803,0.5547,0.8070,-0.0407,0.1673,0.4506,-0.0224,0.0297,0.0043,12.1460,-39.4516,-33.8135,213.5258,-33.8007,4.3212,40.74426527,-74.17786174,0.00000000,
2.616347,0.0803,0.5547,0.8070,-0.0407,0.1673,0.4506,-0.0061,-0.0051,0.0100,12.1460,-39.4516,-33.8135,213.5258,-33.8007,4.3212,40.74426527,-74.17786174,0.00000000,
2.617893,0.0803,0.5547,0.8070,-0.0407,0.1673,0.4506,-0.0061,-0.0051,0.0100,12.1460,-39.4516,-33.8135,214.1767,-33.7900,4.3597,40.74426527,-74.17786174,0.00000000,
2.620046,0.0803,0.5547,0.8070,0.0358,0.0210,-0.1163,-0.0061,-0.0051,0.0100,12.1460,-39.4516,-33.8135,214.1767,-33.7900,4.3597,40.74426527,-74.17786174,0.00000000,
2.652332,0.0789,0.5494,0.8026,0.0358,0.0210,-0.1163,-0.0061,-0.0051,0.0100,12.1460,-39.4516,-33.8135,214.1767,-33.7900,4.3597,40.74426527,-74.17786174,0.00000000,
2.654058,0.0835,0.5540,0.8397,0.0358,0.0210,-0.1163,-0.0061,-0.0051,0.0100,12.1460,-39.4516,-33.8135,214.1767,-33.7900,4.3597,40.74426527,-74.17786174,0.00000000,
2.655627,0.0842,0.5623,0.8641,0.0358,0.0210,-0.1163,-0.0061,-0.0051,0.0100,12.1460,-39.4516,-33.8135,214.1767,-33.7900,4.3597,40.74426527,-74.17786174,0.00000000,
2.657326,0.0842,0.5623,0.8641,0.0358,0.0210,-0.1163,-0.0061,-0.0051,0.0100,12.7075,-38.3728,-34.3567,214.1767,-33.7900,4.3597,40.74426527,-74.17786174,0.00000000,
2.671634,0.0842,0.5623,0.8641,0.0358,0.0210,-0.1163,-0.0566,0.0187,0.0147,12.7075,-38.3728,-34.3567,214.1767,-33.7900,4.3597,40.74426527,-74.17786174,0.00000000,
2.673455,0.0842,0.5623,0.8641,0.0657,0.1244,0.2207,-0.0566,0.0187,0.0147,12.7075,-38.3728,-34.3567,214.1767,-33.7900,4.3597,40.74426527,-74.17786174,0.00000000,
2.674807,0.0842,0.5623,0.8641,0.0657,0.1244,0.2207,-0.0566,0.0187,0.0147,12.7075,-38.3728,-34.3567,214.6477,-33.5927,4.3410,40.74426527,-74.17786174,0.00000000,
2.711209,0.0779,0.5655,0.8385,0.0657,0.1244,0.2207,-0.0566,0.0187,0.0147,12.7075,-38.3728,-34.3567,214.6477,-33.5927,4.3410,40.74426527,-74.17786174,0.00000000,
2.713853,0.0886,0.5716,0.8363,0.0657,0.1244,0.2207,-0.0566,0.0187,0.0147,12.7075,-38.3728,-34.3567,214.6477,-33.5927,4.3410,40.74426527,-74.17786174,0.00000000,
2.715080,0.1052,0.5887,0.8717,0.0657,0.1244,0.2207,-0.0566,0.0187,0.0147,12.7075,-38.3728,-34.3567,214.6477,-33.5927,4.3410,40.74426527,-74.17786174,0.00000000,
2.731051,0.1052,0.5887,0.8717,0.0657,0.1244,0.2207,-0.0500,-0.0035,0.0019,12.7075,-38.3728,-34.3567,214.6477,-33.5927,4.3410,40.74426527,-74.17786174,0.00000000,
2.732804,0.1052,0.5887,0.8717,0.1901,0.3566,0.3976,-0.0500,-0.0035,0.0019,12.7075,-38.3728,-34.3567,214.6477,-33.5927,4.3410,40.74426527,-74.17786174,0.00000000,
2.733942,0.1052,0.5887,0.8717,0.1901,0.3566,0.3976,-0.0500,-0.0035,0.0019,12.7075,-38.3728,-34.3567,214.6835,-33.4355,4.3733,40.74426527,-74.17786174,0.00000000,
2.755219,0.1052,0.5887,0.8717,0.1901,0.3566,0.3976,-0.0500,-0.0035,0.0019,13.4903,-40.6158,-35.7666,214.6835,-33.4355,4.3733,40.74426527,-74.17786174,0.00000000,
2.769090,0.0918,0.5877,0.8958,0.1901,0.3566,0.3976,-0.0500,-0.0035,0.0019,13.4903,-40.6158,-35.7666,214.6835,-33.4355,4.3733,40.74426527,-74.17786174,0.00000000,
2.770752,0.0786,0.5767,0.8805,0.1901,0.3566,0.3976,-0.0500,-0.0035,0.0019,13.4903,-40.6158,-35.7666,214.6835,-33.4355,4.3733,40.74426527,-74.17786174,0.00000000,
2.771804,0.0732,0.5689,0.8683,0.1901,0.3566,0.3976,-0.0500,-0.0035,0.0019,13.4903,-40.6158,-35.7666,214.6835,-33.4355,4.3733,40.74426527,-74.17786174,0.00000000,
2.788377,0.0732,0.5689,0.8683,0.1901,0.3566,0.3976,0.0247,0.0344,-0.0079,13.4903,-40.6158,-35.7666,214.6835,-33.4355,4.3733,40.74426527,-74.17786174,0.00000000,
2.790050,0.0732,0.5689,0.8683,0.0101,0.2171,0.3970,0.0247,0.0344,-0.0079,13.4903,-40.6158,-35.7666,214.6835,-33.4355,4.3733,40.74426527,-74.17786174,0.00000000,
2.791354,0.0732,0.5689,0.8683,0.0101,0.2171,0.3970,0.0247,0.0344,-0.0079,13.4903,-40.6158,-35.7666,215.1860,-33.5101,4.2599,40.74426527,-74.17786174,0.00000000,
2.806752,0.0732,0.5689,0.8683,0.0101,0.2171,0.3970,0.0247,0.0344,-0.0079,13.3453,-45.6833,-38.8260,215.1860,-33.5101,4.2599,40.74426527,-74.17786174,0.00000000,
2.829359,0.0730,0.5648,0.8556,0.0101,0.2171,0.3970,0.0247,0.0344,-0.0079,13.3453,-45.6833,-38.8260,215.1860,-33.5101,4.2599,40.74426527,-74.17786174,0.00000000,
2.830758,0.0711,0.5486,0.8258,0.0101,0.2171,0.3970,0.0247,0.0344,-0.0079,13.3453,-45.6833,-38.8260,215.1860,-33.5101,4.2599,40.74426527,-74.17786174,0.00000000,
2.832247,0.0757,0.5374,0.8140,0.0101,0.2171,0.3970,0.0247,0.0344,-0.0079,13.3453,-45.6833,-38.8260,215.1860,-33.5101,4.2599,40.74426527,-74.17786174,0.00000000,
2.849157,0.0757,0.5374,0.8140,0.0101,0.2171,0.3970,0.0509,-0.0014,-0.0126,13.3453,-45.6833,-38.8260,215.1860,-33.5101,4.2599,40.74426527,-74.17786174,0.00000000,
2.850592,0.0757,0.5374,0.8140,0.0185,-0.0873,-0.0165,0.0509,-0.0014,-0.0126,13.3453,-45.6833,-38.8260,215.1860,-33.5101,4.2599,40.74426527,-74.17786174,0.00000000,
2.851696,0.0757,0.5374,0.8140,0.0185,-0.0873,-0.0165,0.0509,-0.0014,-0.0126,13.3453,-45.6833,-38.8260,215.5532,-33.6755,4.2434,40.74426527,-74.17786174,0.00000000,
2.856311,0.0757,0.5374,0.8140,0.0185,-0.0873,-0.0165,0.0509,-0.0014,-0.0126,12.7899,-45.7611,-36.9812,215.5532,-33.6755,4.2434,40.74426527,-74.17786174,0.00000000,
2.885297,0.0798,0.5381,0.8328,0.0185,-0.0873,-0.0165,0.0509,-0.0014,-0.0126,12.7899,-45.7611,-36.9812,215.5532,-33.6755,4.2434,40.74426527,-74.17786174,0.00000000,
2.886135,0.0725,0.5401,0.8128,0.0185,-0.0873,-0.0165,0.0509,-0.0014,-0.0126,12.7899,-45.7611,-36.9812,215.5532,-33.6755,4.2434,40.74426527,-74.17786174,0.00000000,
2.886651,0.0747,0.5308,0.7813,0.0185,-0.0873,-0.0165,0.0509,-0.0014,-0.0126,12.7899,-45.7611,-36.9812,215.5532,-33.6755,4.2434,40.74426527,-74.17786174,0.00000000,
2.905181,0.0747,0.5308,0.7813,0.0185,-0.0873,-0.0165,0.0253,0.0413,-0.0274,12.7899,-45.7611,-36.9812,215.5532,-33.6755,4.2434,40.74426527,-74.17786174,0.00000000,
2.905984,0.0747,0.5308,0.7813,0.0379,-0.1570,-0.2453,0.0253,0.0413,-0.0274,12.7899,-45.7611,-36.9812,215.5532,-33.6755,4.2434,40.74426527,-74.17786174,0.00000000,
2.906421,0.0747,0.5308,0.7813,0.0379,-0.1570,-0.2453,0.0253,0.0413,-0.0274,12.7899,-45.7611,-36.9812,215.8833,-33.7607,4.0846,40.74426527,-74.17786174,0.00000000,
2.944992,0.0769,0.5350,0.8050,0.0379,-0.1570,-0.2453,0.0253,0.0413,-0.0274,12.7899,-45.7611,-36.9812,215.8833,-33.7607,4.0846,40.74426527,-74.17786174,0.00000000,
2.946459,0.0784,0.5396,0.8275,0.0379,-0.1570,-0.2453,0.0253,0.0413,-0.0274,12.7899,-45.7611,-36.9812,215.8833,-33.7607,4.0846,40.74426527,-74.17786174,0.00000000,
2.947729,0.0798,0.5508,0.8016,0.0379,-0.1570,-0.2453,0.0253,0.0413,-0.0274,12.7899,-45.7611,-36.9812,215.8833,-33.7607,4.0846,40.74426527,-74.17786174,0.00000000,
2.955347,0.0798,0.5508,0.8016,0.0379,-0.1570,-0.2453,0.0253,0.0413,-0.0274,13.9252,-45.8099,-37.1460,215.8833,-33.7607,4.0846,40.74426527,-74.17786174,0.00000000,
2.964421,0.0798,0.5508,0.8016,0.1330,-0.0059,-0.0889,0.0253,0.0413,-0.0274,13.9252,-45.8099,-37.1460,215.8833,-33.7607,4.0846,40.74426527,-74.17786174,0.00000000,
2.966217,0.0798,0.5508,0.8016,0.1330,-0.0059,-0.0889,0.0253,0.0413,-0.0274,13.9252,-45.8099,-37.1460,216.2173,-33.6331,4.0610,40.74426527,-74.17786174,0.00000000,
2.967773,0.0798,0.5508,0.8016,0.1330,-0.0059,-0.0889,-0.0393,0.0134,-0.0014,13.9252,-45.8099,-37.1460,216.2173,-33.6331,4.0610,40.74426527,-74.17786174,0.00000000,
3.002416,0.0938,0.5560,0.8214,0.1330,-0.0059,-0.0889,-0.0393,0.0134,-0.0014,13.9252,-45.8099,-37.1460,216.2173,-33.6331,4.0610,40.74426527,-74.17786174,0.00000000,
3.004437,0.0984,0.5660,0.8890,0.1330,-0.0059,-0.0889,-0.0393,0.0134,-0.0014,13.9252,-45.8099,-37.1460,216.2173,-33.6331,4.0610,40.74426527,-74.17786174,0.00000000,
3.005784,0.1072,0.5733,0.9115,0.1330,-0.0059,-0.0889,-0.0393,0.0134,-0.0014,13.9252,-45.8099,-37.1460,216.2173,-33.6331,4.0610,40.74426527,-74.17786174,0.00000000,
3.007079,0.1072,0.5733,0.9115,0.1330,-0.0059,-0.0889,-0.0393,0.0134,-0.0014,11.9064,-45.5551,-35.7880,216.2173,-33.6331,4.0610,40.74426527,-74.17786174,0.00000000,
3.022036,0.1072,0.5733,0.9115,0.1330,-0.0059,-0.0889,-0.0458,0.0022,0.0054,11.9064,-45.5551,-35.7880,216.2173,-33.6331,4.0610,40.74426527,-74.17786174,0.00000000,
3.024590,0.1072,0.5733,0.9115,0.2941,0.2362,0.6167,-0.0458,0.0022,0.0054,11.9064,-45.5551,-35.7880,216.2173,-33.6331,4.0610,40.74426527,-74.17786174,0.00000000,
3.026260,0.1072,0.5733,0.9115,0.2941,0.2362,0.6167,-0.0458,0.0022,0.0054,11.9064,-45.5551,-35.7880,216.3016,-33.4622,4.0932,40.74426527,-74.17786174,0.00000000,
3.055760,0.1072,0.5733,0.9115,0.2941,0.2362,0.6167,-0.0458,0.0022,0.0054,12.1887,-43.9438,-35.2783,216.3016,-33.4622,4.0932,40.74426527,-74.17786174,0.00000000,
3.065644,0.0977,0.5760,0.8741,0.2941,0.2362,0.6167,-0.0458,0.0022,0.0054,12.1887,-43.9438,-35.2783,216.3016,-33.4622,4.0932,40.74426527,-74.17786174,0.00000000,
3.069052,0.0913,0.5740,0.8231,0.2941,0.2362,0.6167,-0.0458,0.0022,0.0054,12.1887,-43.9438,-35.2783,216.3016,-33.4622,4.0932,40.74426527,-74.17786174,0.00000000,
3.071756,0.0925,0.5682,0.8094,0.2941,0.2362,0.6167,-0.0458,0.0022,0.0054,12.1887,-43.9438,-35.2783,216.3016,-33.4622,4.0932,40.74426527,-74.17786174,0.00000000,
3.084935,0.0925,0.5682,0.8094,0.2040,0.1505,-0.1578,-0.0458,0.0022,0.0054,12.1887,-43.9438,-35.2783,216.3016,-33.4622,4.0932,40.74426527,-74.17786174,0.00000000,
3.087612,0.0925,0.5682,0.8094,0.2040,0.1505,-0.1578,-0.0458,0.0022,0.0054,12.1887,-43.9438,-35.2783,216.3470,-33.7295,4.1495,40.74426527,-74.17786174,0.00000000,
3.089743,0.0925,0.5682,0.8094,0.2040,0.1505,-0.1578,0.0750,0.0096,0.0322,12.1887,-43.9438,-35.2783,216.3470,-33.7295,4.1495,40.74426527,-74.17786174,0.00000000,
3.118886,0.0947,0.5582,0.7970,0.2040,0.1505,-0.1578,0.0750,0.0096,0.0322,12.1887,-43.9438,-35.2783,216.3470,-33.7295,4.1495,40.74426527,-74.17786174,0.00000000,
3.119948,0.1004,0.5474,0.8119,0.2040,0.1505,-0.1578,0.0750,0.0096,0.0322,12.1887,-43.9438,-35.2783,216.3470,-33.7295,4.1495,40.74426527,-74.17786174,0.00000000,
3.120631,0.1035,0.5394,0.8241,0.2040,0.1505,-0.1578,0.0750,0.0096,0.0322,12.1887,-43.9438,-35.2783,216.3470,-33.7295,4.1495,40.74426527,-74.17786174,0.00000000,
3.139332,0.1035,0.5394,0.8241,0.2040,0.1505,-0.1578,0.0650,-0.0477,0.0064,12.1887,-43.9438,-35.2783,216.3470,-33.7295,4.1495,40.74426527,-74.17786174,0.00000000,
3.140766,0.1035,0.5394,0.8241,0.2443,-0.1467,-0.1351,0.0650,-0.0477,0.0064,12.1887,-43.9438,-35.2783,216.3470,-33.7295,4.1495,40.74426527,-74.17786174,0.00000000,
3.141832,0.1035,0.5394,0.8241,0.2443,-0.1467,-0.1351,0.0650,-0.0477,0.0064,12.1887,-43.9438,-35.2783,216.3152,-33.9468,4.3222,40.74426527,-74.17786174,0.00000000,
3.155414,0.1035,0.5394,0.8241,0.2443,-0.1467,-0.1351,0.0650,-0.0477,0.0064,12.5977,-42.1661,-35.4340,216.3152,-33.9468,4.3222,40.74426527,-74.17786174,0.00000000,
3.177803,0.0960,0.5311,0.7928,0.2443,-0.1467,-0.1351,0.0650,-0.0477,0.0064,12.5977,-42.1661,-35.4340,216.3152,-33.9468,4.3222,40.74426527,-74.17786174,0.00000000,
3.179277,0.0967,0.5247,0.7635,0.2443,-0.1467,-0.1351,0.0650,-0.0477,0.0064,12.5977,-42.1661,-35.4340,216.3152,-33.9468,4.3222,40.74426527,-74.17786174,0.00000000,
3.180295,0.0933,0.5215,0.7650,0.2443,-0.1467,-0.1351,0.0650,-0.0477,0.0064,12.5977,-42.1661,-35.4340,216.3152,-33.9468,4.3222,40.74426527,-74.17786174,0.00000000,
3.199813,0.0933,0.5215,0.7650,0.2443,-0.1467,-0.1351,0.0737,-0.0373,-0.0101,12.5977,-42.1661,-35.4340,216.3152,-33.9468,4.3222,40.74426527,-74.17786174,0.00000000,
3.203124,0.0933,0.5215,0.7650,0.1773,-0.3461,-0.4847,0.0737,-0.0373,-0.0101,12.5977,-42.1661,-35.4340,216.3152,-33.9468,4.3222,40.74426527,-74.17786174,0.00000000,
3.206905,0.0933,0.5215,0.7650,0.1773,-0.3461,-0.4847,0.0737,-0.0373,-0.0101,12.5977,-42.1661,-35.4340,216.6577,-34.1995,4.4307,40.74426527,-74.17786174,0.00000000,
3.210842,0.0933,0.5215,0.7650,0.1773,-0.3461,-0.4847,0.0737,-0.0373,-0.0101,14.3433,-43.5593,-36.8103,216.6577,-34.1995,4.4307,40.74426527,-74.17786174,0.00000000,
3.236340,0.0947,0.5193,0.7828,0.1773,-0.3461,-0.4847,0.0737,-0.0373,-0.0101,14.3433,-43.5593,-36.8103,216.6577,-34.1995,4.4307,40.74426527,-74.17786174,0.00000000,
3.238388,0.0886,0.5176,0.7618,0.1773,-0.3461,-0.4847,0.0737,-0.0373,-0.0101,14.3433,-43.5593,-36.8103,216.6577,-34.1995,4.4307,40.74426527,-74.17786174,0.00000000,
3.240318,0.0784,0.5225,0.7283,0.1773,-0.3461,-0.4847,0.0737,-0.0373,-0.0101,14.3433,-43.5593,-36.8103,216.6577,-34.1995,4.4307,40.74426527,-74.17786174,0.00000000,
3.256278,0.0784,0.5225,0.7283,0.1773,-0.3461,-0.4847,0.0487,0.0024,-0.0484,14.3433,-43.5593,-36.8103,216.6577,-34.1995,4.4307,40.74426527,-74.17786174,0.00000000,
3.258550,0.0784,0.5225,0.7283,0.1773,-0.3461,-0.4847,0.0487,0.0024,-0.0484,15.9256,-43.0649,-38.5132,216.6577,-34.1995,4.4307,40.74426527,-74.17786174,0.00000000,
3.261845,0.0784,0.5225,0.7283,0.0690,-0.3707,-0.6991,0.0487,0.0024,-0.0484,15.9256,-43.0649,-38.5132,216.6577,-34.1995,4.4307,40.74426527,-74.17786174,0.00000000,
3.264430,0.0784,0.5225,0.7283,0.0690,-0.3707,-0.6991,0.0487,0.0024,-0.0484,15.9256,-43.0649,-38.5132,217.2928,-34.3818,4.3466,40.74426527,-74.17786174,0.00000000,
3.296540,0.0798,0.5235,0.7469,0.0690,-0.3707,-0.6991,0.0487,0.0024,-0.0484,15.9256,-43.0649,-38.5132,217.2928,-34.3818,4.3466,40.74426527,-74.17786174,0.00000000,
3.302162,0.0742,0.5257,0.7943,0.0690,-0.3707,-0.6991,0.0487,0.0024,-0.0484,15.9256,-43.0649,-38.5132,217.2928,-34.3818,4.3466,40.74426527,-74.17786174,0.00000000,
3.305072,0.0681,0.5313,0.7821,0.0690,-0.3707,-0.6991,0.0487,0.0024,-0.0484,15.9256,-43.0649,-38.5132,217.2928,-34.3818,4.3466,40.74426527,-74.17786174,0.00000000,
3.315961,0.0681,0.5313,0.7821,0.0690,-0.3707,-0.6991,0.0487,0.0024,-0.0484,15.9256,-43.0649,-38.5132,218.1789,-34.2994,4.2419,40.74426527,-74.17786174,0.00000000,
3.320168,0.0681,0.5313,0.7821,-0.0443,-0.2940,-0.3448,0.0487,0.0024,-0.0484,15.9256,-43.0649,-38.5132,218.1789,-34.2994,4.2419,40.74426527,-74.17786174,0.00000000,
3.321820,0.0681,0.5313,0.7821,-0.0443,-0.2940,-0.3448,-0.0272,-0.0055,-0.0629,15.9256,-43.0649,-38.5132,218.1789,-34.2994,4.2419,40.74426527,-74.17786174,0.00000000,
3.353955,0.0642,0.5254,0.7699,-0.0443,-0.2940,-0.3448,-0.0272,-0.0055,-0.0629,15.9256,-43.0649,-38.5132,218.1789,-34.2994,4.2419,40.74426527,-74.17786174,0.00000000,
3.356421,0.0525,0.5169,0.7970,-0.0443,-0.2940,-0.3448,-0.0272,-0.0055,-0.0629,15.9256,-43.0649,-38.5132,218.1789,-34.2994,4.2419,40.74426527,-74.17786174,0.00000000,
3.357491,0.0610,0.5152,0.7950,-0.0443,-0.2940,-0.3448,-0.0272,-0.0055,-0.0629,15.9256,-43.0649,-38.5132,218.1789,-34.2994,4.2419,40.74426527,-74.17786174,0.00000000,
3.358654,0.0610,0.5152,0.7950,-0.0443,-0.2940,-0.3448,-0.0272,-0.0055,-0.0629,14.8102,-45.3690,-40.1047,218.1789,-34.2994,4.2419,40.74426527,-74.17786174,0.00000000,
3.373163,0.0610,0.5152,0.7950,-0.0443,-0.2940,-0.3448,-0.0209,0.0073,0.0373,14.8102,-45.3690,-40.1047,218.1789,-34.2994,4.2419,40.74426527,-74.17786174,0.00000000,
3.375654,0.0610,0.5152,0.7950,-0.1052,-0.4024,-0.2485,-0.0209,0.0073,0.0373,14.8102,-45.3690,-40.1047,218.1789,-34.2994,4.2419,40.74426527,-74.17786174,0.00000000,
3.377528,0.0610,0.5152,0.7950,-0.1052,-0.4024,-0.2485,-0.0209,0.0073,0.0373,14.8102,-45.3690,-40.1047,218.4597,-34.2006,4.2844,40.74426527,-74.17786174,0.00000000,
3.405830,0.0610,0.5152,0.7950,-0.1052,-0.4024,-0.2485,-0.0209,0.0073,0.0373,16.1148,-47.5128,-41.6992,218.4597,-34.2006,4.2844,40.74426527,-74.17786174,0.00000000,
3.413969,0.0764,0.5115,0.7845,-0.1052,-0.4024,-0.2485,-0.0209,0.0073,0.0373,16.1148,-47.5128,-41.6992,218.4597,-34.2006,4.2844,40.74426527,-74.17786174,0.00000000,
3.417278,0.0823,0.5113,0.7977,-0.1052,-0.4024,-0.2485,-0.0209,0.0073,0.0373,16.1148,-47.5128,-41.6992,218.4597,-34.2006,4.2844,40.74426527,-74.17786174,0.00000000,
3.419438,0.0857,0.5142,0.8172,-0.1052,-0.4024,-0.2485,-0.0209,0.0073,0.0373,16.1148,-47.5128,-41.6992,218.4597,-34.2006,4.2844,40.74426527,-74.17786174,0.00000000,
3.431629,0.0857,0.5142,0.8172,0.0996,-0.3582,-0.1734,-0.0209,0.0073,0.0373,16.1148,-47.5128,-41.6992,218.4597,-34.2006,4.2844,40.74426527,-74.17786174,0.00000000,
3.434903,0.0857,0.5142,0.8172,0.0996,-0.3582,-0.1734,-0.0423,-0.0236,0.0510,16.1148,-47.5128,-41.6992,218.4597,-34.2006,4.2844,40.74426527,-74.17786174,0.00000000,
3.437021,0.0857,0.5142,0.8172,0.0996,-0.3582,-0.1734,-0.0423,-0.0236,0.0510,16.1148,-47.5128,-41.6992,218.7465,-34.0313,4.4583,40.74426527,-74.17786174,0.00000000,
3.455962,0.0857,0.5142,0.8172,0.0996,-0.3582,-0.1734,-0.0423,-0.0236,0.0510,14.3448,-50.2441,-44.3741,218.7465,-34.0313,4.4583,40.74426527,-74.17786174,0.00000000,
3.470175,0.0935,0.5230,0.7874,0.0996,-0.3582,-0.1734,-0.0423,-0.0236,0.0510,14.3448,-50.2441,-44.3741,218.7465,-34.0313,4.4583,40.74426527,-74.17786174,0.00000000,
3.473705,0.1123,0.5269,0.7650,0.0996,-0.3582,-0.1734,-0.0423,-0.0236,0.0510,14.3448,-50.2441,-44.3741,218.7465,-34.0313,4.4583,40.74426527,-74.17786174,0.00000000,
3.477471,0.1272,0.5440,0.8287,0.0996,-0.3582,-0.1734,-0.0423,-0.0236,0.0510,14.3448,-50.2441,-44.3741,218.7465,-34.0313,4.4583,40.74426527,-74.17786174,0.00000000,
3.490237,0.1272,0.5440,0.8287,0.0996,-0.3582,-0.1734,-0.0812,-0.0112,0.0952,14.3448,-50.2441,-44.3741,218.7465,-34.0313,4.4583,40.74426527,-74.17786174,0.00000000,
3.494173,0.1272,0.5440,0.8287,0.4202,-0.0330,0.0456,-0.0812,-0.0112,0.0952,14.3448,-50.2441,-44.3741,218.7465,-34.0313,4.4583,40.74426527,-74.17786174,0.00000000,
3.497251,0.1272,0.5440,0.8287,0.4202,-0.0330,0.0456,-0.0812,-0.0112,0.0952,14.3448,-50.2441,-44.3741,218.7424,-33.7351,4.7084,40.74426527,-74.17786174,0.00000000,
3.530841,0.1331,0.5640,0.8836,0.4202,-0.0330,0.0456,-0.0812,-0.0112,0.0952,14.3448,-50.2441,-44.3741,218.7424,-33.7351,4.7084,40.74426527,-74.17786174,0.00000000,
3.538461,0.1304,0.5801,0.8490,0.4202,-0.0330,0.0456,-0.0812,-0.0112,0.0952,14.3448,-50.2441,-44.3741,218.7424,-33.7351,4.7084,40.74426527,-74.17786174,0.00000000,
3.542057,0.1309,0.5972,0.8140,0.4202,-0.0330,0.0456,-0.0812,-0.0112,0.0952,14.3448,-50.2441,-44.3741,218.7424,-33.7351,4.7084,40.74426527,-74.17786174,0.00000000,
3.551430,0.1309,0.5972,0.8140,0.4202,-0.0330,0.0456,-0.0315,-0.0075,0.0217,14.3448,-50.2441,-44.3741,218.7424,-33.7351,4.7084,40.74426527,-74.17786174,0.00000000,
3.556790,0.1309,0.5972,0.8140,0.4477,0.4443,0.1492,-0.0315,-0.0075,0.0217,14.3448,-50.2441,-44.3741,218.7424,-33.7351,4.7084,40.74426527,-74.17786174,0.00000000,
3.560647,0.1309,0.5972,0.8140,0.4477,0.4443,0.1492,-0.0315,-0.0075,0.0217,14.3448,-50.2441,-44.3741,218.7395,-33.6547,4.8111,40.74426527,-74.17786174,0.00000000,
3.562761,0.1309,0.5972,0.8140,0.4477,0.4443,0.1492,-0.0315,-0.0075,0.0217,15.0528,-51.5350,-48.5107,218.7395,-33.6547,4.8111,40.74426527,-74.17786174,0.00000000,
3.586866,0.1253,0.6011,0.8497,0.4477,0.4443,0.1492,-0.0315,-0.0075,0.0217,15.0528,-51.5350,-48.5107,218.7395,-33.6547,4.8111,40.74426527,-74.17786174,0.00000000,
3.590691,0.1221,0.5963,0.8890,0.4477,0.4443,0.1492,-0.0315,-0.0075,0.0217,15.0528,-51.5350,-48.5107,218.7395,-33.6547,4.8111,40.74426527,-74.17786174,0.00000000,
3.592777,0.1040,0.5823,0.8976,0.4477,0.4443,0.1492,-0.0315,-0.0075,0.0217,15.0528,-51.5350,-48.5107,218.7395,-33.6547,4.8111,40.74426527,-74.17786174,0.00000000,
3.607033,0.1040,0.5823,0.8976,0.4477,0.4443,0.1492,-0.0315,-0.0075,0.0217,13.6688,-52.5497,-51.7212,218.7395,-33.6547,4.8111,40.74426527,-74.17786174,0.00000000,
3.611988,0.1040,0.5823,0.8976,0.4477,0.4443,0.1492,-0.0189,0.0110,-0.0620,13.6688,-52.5497,-51.7212,218.7395,-33.6547,4.8111,40.74426527,-74.17786174,0.00000000,
3.615491,0.1040,0.5823,0.8976,0.2401,0.3495,0.5584,-0.0189,0.0110,-0.0620,13.6688,-52.5497,-51.7212,218.7395,-33.6547,4.8111,40.74426527,-74.17786174,0.00000000,
3.619013,0.1040,0.5823,0.8976,0.2401,0.3495,0.5584,-0.0189,0.0110,-0.0620,13.6688,-52.5497,-51.7212,219.9025,-33.6023,4.6842,40.74426527,-74.17786174,0.00000000,
3.646893,0.0906,0.5709,0.8563,0.2401,0.3495,0.5584,-0.0189,0.0110,-0.0620,13.6688,-52.5497,-51.7212,219.9025,-33.6023,4.6842,40.74426527,-74.17786174,0.00000000,
3.652663,0.0864,0.5567,0.8167,0.2401,0.3495,0.5584,-0.0189,0.0110,-0.0620,13.6688,-52.5497,-51.7212,219.9025,-33.6023,4.6842,40.74426527,-74.17786174,0.00000000,
3.656126,0.0852,0.5472,0.8214,0.2401,0.3495,0.5584,-0.0189,0.0110,-0.0620,13.6688,-52.5497,-51.7212,219.9025,-33.6023,4.6842,40.74426527,-74.17786174,0.00000000,
3.663618,0.0852,0.5472,0.8214,0.2401,0.3495,0.5584,-0.0189,0.0110,-0.0620,14.7186,-52.5574,-54.1016,219.9025,-33.6023,4.6842,40.74426527,-74.17786174,0.00000000,
3.667584,0.0852,0.5472,0.8214,0.0135,-0.0062,-0.0195,-0.0189,0.0110,-0.0620,14.7186,-52.5574,-54.1016,219.9025,-33.6023,4.6842,40.74426527,-74.17786174,0.00000000,
3.671596,0.0852,0.5472,0.8214,0.0135,-0.0062,-0.0195,-0.0189,0.0110,-0.0620,14.7186,-52.5574,-54.1016,220.7538,-33.6909,4.5197,40.74426527,-74.17786174,0.00000000,
3.673938,0.0852,0.5472,0.8214,0.0135,-0.0062,-0.0195,0.0218,0.0106,-0.0736,14.7186,-52.5574,-54.1016,220.7538,-33.6909,4.5197,40.74426527,-74.17786174,0.00000000,
3.703637,0.0671,0.5408,0.8258,0.0135,-0.0062,-0.0195,0.0218,0.0106,-0.0736,14.7186,-52.5574,-54.1016,220.7538,-33.6909,4.5197,40.74426527,-74.17786174,0.00000000,
3.705707,0.0598,0.5330,0.7960,0.0135,-0.0062,-0.0195,0.0218,0.0106,-0.0736,14.7186,-52.5574,-54.1016,220.7538,-33.6909,4.5197,40.74426527,-74.17786174,0.00000000,
3.706915,0.0571,0.5313,0.7977,0.0135,-0.0062,-0.0195,0.0218,0.0106,-0.0736,14.7186,-52.5574,-54.1016,220.7538,-33.6909,4.5197,40.74426527,-74.17786174,0.00000000,
3.722283,0.0571,0.5313,0.7977,0.0135,-0.0062,-0.0195,-0.0692,0.0240,-0.0390,14.7186,-52.5574,-54.1016,220.7538,-33.6909,4.5197,40.74426527,-74.17786174,0.00000000,
3.724896,0.0571,0.5313,0.7977,0.0135,-0.0062,-0.0195,-0.0692,0.0240,-0.0390,14.7186,-52.5574,-54.1016,220.9210,-33.4606,4.3704,40.74426527,-74.17786174,0.00000000,
3.726690,0.0571,0.5313,0.7977,-0.1157,-0.1311,-0.1254,-0.0692,0.0240,-0.0390,14.7186,-52.5574,-54.1016,220.9210,-33.4606,4.3704,40.74426527,-74.17786174,0.00000000,
3.755559,0.0571,0.5313,0.7977,-0.1157,-0.1311,-0.1254,-0.0692,0.0240,-0.0390,11.8530,-50.7950,-56.9153,220.9210,-33.4606,4.3704,40.74426527,-74.17786174,0.00000000,
3.762087,0.0745,0.5320,0.8441,-0.1157,-0.1311,-0.1254,-0.0692,0.0240,-0.0390,11.8530,-50.7950,-56.9153,220.9210,-33.4606,4.3704,40.74426527,-74.17786174,0.00000000,
3.763106,0.0835,0.5411,0.8980,-0.1157,-0.1311,-0.1254,-0.0692,0.0240,-0.0390,11.8530,-50.7950,-56.9153,220.9210,-33.4606,4.3704,40.74426527,-74.17786174,0.00000000,
3.763628,0.0847,0.5433,0.8792,-0.1157,-0.1311,-0.1254,-0.0692,0.0240,-0.0390,11.8530,-50.7950,-56.9153,220.9210,-33.4606,4.3704,40.74426527,-74.17786174,0.00000000,
3.782114,0.0847,0.5433,0.8792,-0.1157,-0.1311,-0.1254,-0.0454,0.0120,0.0182,11.8530,-50.7950,-56.9153,220.9210,-33.4606,4.3704,40.74426527,-74.17786174,0.00000000,
3.783136,0.0847,0.5433,0.8792,0.1059,0.0004,0.3611,-0.0454,0.0120,0.0182,11.8530,-50.7950,-56.9153,220.9210,-33.4606,4.3704,40.74426527,-74.17786174,0.00000000,
3.783663,0.0847,0.5433,0.8792,0.1059,0.0004,0.3611,-0.0454,0.0120,0.0182,11.8530,-50.7950,-56.9153,221.3480,-33.2835,4.3785,40.74426527,-74.17786174,0.00000000,
3.806284,0.0847,0.5433,0.8792,0.1059,0.0004,0.3611,-0.0454,0.0120,0.0182,10.1044,-54.0894,-56.5948,221.3480,-33.2835,4.3785,40.74426527,-74.17786174,0.00000000,
3.819324,0.0916,0.5455,0.8158,0.1059,0.0004,0.3611,-0.0454,0.0120,0.0182,10.1044,-54.0894,-56.5948,221.3480,-33.2835,4.3785,40.74426527,-74.17786174,0.00000000,
3.820366,0.0957,0.5460,0.8119,0.1059,0.0004,0.3611,-0.0454,0.0120,0.0182,10.1044,-54.0894,-56.5948,221.3480,-33.2835,4.3785,40.74426527,-74.17786174,0.00000000,
3.820882,0.1045,0.5477,0.8680,0.1059,0.0004,0.3611,-0.0454,0.0120,0.0182,10.1044,-54.0894,-56.5948,221.3480,-33.2835,4.3785,40.74426527,-74.17786174,0.00000000,
3.839661,0.1045,0.5477,0.8680,0.1059,0.0004,0.3611,-0.0287,0.0055,-0.0085,10.1044,-54.0894,-56.5948,221.3480,-33.2835,4.3785,40.74426527,-74.17786174,0.00000000,
3.842339,0.1045,0.5477,0.8680,0.2128,0.0409,0.2716,-0.0287,0.0055,-0.0085,10.1044,-54.0894,-56.5948,221.3480,-33.2835,4.3785,40.74426527,-74.17786174,0.00000000,
3.843627,0.1045,0.5477,0.8680,0.2128,0.0409,0.2716,-0.0287,0.0055,-0.0085,10.1044,-54.0894,-56.5948,221.5489,-33.1772,4.3668,40.74426527,-74.17786174,0.00000000,
3.854891,0.1045,0.5477,0.8680,0.2128,0.0409,0.2716,-0.0287,0.0055,-0.0085,9.2148,-55.3009,-57.2021,221.5489,-33.1772,4.3668,40.74426527,-74.17786174,0.00000000,
3.878096,0.0918,0.5447,0.8900,0.2128,0.0409,0.2716,-0.0287,0.0055,-0.0085,9.2148,-55.3009,-57.2021,221.5489,-33.1772,4.3668,40.74426527,-74.17786174,0.00000000,
3.880673,0.0769,0.5311,0.8426,0.2128,0.0409,0.2716,-0.0287,0.0055,-0.0085,9.2148,-55.3009,-57.2021,221.5489,-33.1772,4.3668,40.74426527,-74.17786174,0.00000000,
3.882293,0.0693,0.5130,0.8004,0.2128,0.0409,0.2716,-0.0287,0.0055,-0.0085,9.2148,-55.3009,-57.2021,221.5489,-33.1772,4.3668,40.74426527,-74.17786174,0.00000000,
3.898441,0.0693,0.5130,0.8004,0.2128,0.0409,0.2716,0.0721,-0.0230,-0.0197,9.2148,-55.3009,-57.2021,221.5489,-33.1772,4.3668,40.74426527,-74.17786174,0.00000000,
3.902090,0.0693,0.5130,0.8004,-0.0425,-0.2985,-0.0244,0.0721,-0.0230,-0.0197,9.2148,-55.3009,-57.2021,221.5489,-33.1772,4.3668,40.74426527,-74.17786174,0.00000000,
3.904367,0.0693,0.5130,0.8004,-0.0425,-0.2985,-0.0244,0.0721,-0.0230,-0.0197,9.2148,-55.3009,-57.2021,221.5955,-33.4023,4.3922,40.74426527,-74.17786174,0.00000000,
3.937775,0.0689,0.4996,0.8289,-0.0425,-0.2985,-0.0244,0.0721,-0.0230,-0.0197,9.2148,-55.3009,-57.2021,221.5955,-33.4023,4.3922,40.74426527,-74.17786174,0.00000000,
3.940714,0.0588,0.4976,0.8309,-0.0425,-0.2985,-0.0244,0.0721,-0.0230,-0.0197,9.2148,-55.3009,-57.2021,221.5955,-33.4023,4.3922,40.74426527,-74.17786174,0.00000000,
3.942015,0.0503,0.4825,0.7594,-0.0425,-0.2985,-0.0244,0.0721,-0.0230,-0.0197,9.2148,-55.3009,-57.2021,221.5955,-33.4023,4.3922,40.74426527,-74.17786174,0.00000000,
3.955299,0.0503,0.4825,0.7594,-0.0425,-0.2985,-0.0244,0.0721,-0.0230,-0.0197,9.0332,-52.6398,-56.6376,221.5955,-33.4023,4.3922,40.74426527,-74.17786174,0.00000000,
3.957355,0.0503,0.4825,0.7594,-0.0425,-0.2985,-0.0244,0.0994,0.0289,-0.0187,9.0332,-52.6398,-56.6376,221.5955,-33.4023,4.3922,40.74426527,-74.17786174,0.00000000,
3.958498,0.0503,0.4825,0.7594,-0.1920,-0.6119,-0.4699,0.0994,0.0289,-0.0187,9.0332,-52.6398,-56.6376,221.5955,-33.4023,4.3922,40.74426527,-74.17786174,0.00000000,
3.959936,0.0503,0.4825,0.7594,-0.1920,-0.6119,-0.4699,0.0994,0.0289,-0.0187,9.0332,-52.6398,-56.6376,221.7489,-33.7099,4.2635,40.74426527,-74.17786174,0.00000000,
3.994706,0.0532,0.4791,0.7337,-0.1920,-0.6119,-0.4699,0.0994,0.0289,-0.0187,9.0332,-52.6398,-56.6376,221.7489,-33.7099,4.2635,40.74426527,-74.17786174,0.00000000,
3.996353,0.0569,0.4764,0.7718,-0.1920,-0.6119,-0.4699,0.0994,0.0289,-0.0187,9.0332,-52.6398,-56.6376,221.7489,-33.7099,4.2635,40.74426527,-74.17786174,0.00000000,
3.997349,0.0676,0.4859,0.7960,-0.1920,-0.6119,-0.4699,0.0994,0.0289,-0.0187,9.0332,-52.6398,-56.6376,221.7489,-33.7099,4.2635,40.74426527,-74.17786174,0.00000000,
4.005015,0.0676,0.4859,0.7960,-0.1920,-0.6119,-0.4699,0.0994,0.0289,-0.0187,7.7774,-52.9984,-54.4830,221.7489,-33.7099,4.2635,40.74426527,-74.17786174,0.00000000,
4.016752,0.0676,0.4859,0.7960,-0.1920,-0.6119,-0.4699,-0.0246,0.0301,-0.0069,7.7774,-52.9984,-54.4830,221.7489,-33.7099,4.2635,40.74426527,-74.17786174,0.00000000,
4.019054,0.0676,0.4859,0.7960,-0.1920,-0.6119,-0.4699,-0.0246,0.0301,-0.0069,7.7774,-52.9984,-54.4830,221.7127,-33.5942,4.1691,40.74426527,-74.17786174,0.00000000,
4.020590,0.0676,0.4859,0.7960,-0.0222,-0.5898,-0.3352,-0.0246,0.0301,-0.0069,7.7774,-52.9984,-54.4830,221.7127,-33.5942,4.1691,40.74426527,-74.17786174,0.00000000,
4.052889,0.0847,0.4971,0.7984,-0.0222,-0.5898,-0.3352,-0.0246,0.0301,-0.0069,7.7774,-52.9984,-54.4830,221.7127,-33.5942,4.1691,40.74426527,-74.17786174,0.00000000,
4.054804,0.0899,0.5208,0.8126,-0.0222,-0.5898,-0.3352,-0.0246,0.0301,-0.0069,7.7774,-52.9984,-54.4830,221.7127,-33.5942,4.1691,40.74426527,-74.17786174,0.00000000,
4.056149,0.0982,0.5357,0.8328,-0.0222,-0.5898,-0.3352,-0.0246,0.0301,-0.0069,7.7774,-52.9984,-54.4830,221.7127,-33.5942,4.1691,40.74426527,-74.17786174,0.00000000,
4.057312,0.0982,0.5357,0.8328,-0.0222,-0.5898,-0.3352,-0.0246,0.0301,-0.0069,9.5779,-51.0010,-53.6041,221.7127,-33.5942,4.1691,40.74426527,-74.17786174,0.00000000,
4.073984,0.0982,0.5357,0.8328,-0.0222,-0.5898,-0.3352,-0.0639,0.0367,0.0050,9.5779,-51.0010,-53.6041,221.7127,-33.5942,4.1691,40.74426527,-74.17786174,0.00000000,
4.076857,0.0982,0.5357,0.8328,0.2219,-0.0278,0.1356,-0.0639,0.0367,0.0050,9.5779,-51.0010,-53.6041,221.7127,-33.5942,4.1691,40.74426527,-74.17786174,0.00000000,
4.079346,0.0982,0.5357,0.8328,0.2219,-0.0278,0.1356,-0.0639,0.0367,0.0050,9.5779,-51.0010,-53.6041,221.8885,-33.3650,4.0975,40.74426527,-74.17786174,0.00000000,
4.112323,0.0923,0.5655,0.8722,0.2219,-0.0278,0.1356,-0.0639,0.0367,0.0050,9.5779,-51.0010,-53.6041,221.8885,-33.3650,4.0975,40.74426527,-74.17786174,0.00000000,
4.114395,0.0896,0.5816,0.8724,0.2219,-0.0278,0.1356,-0.0639,0.0367,0.0050,9.5779,-51.0010,-53.6041,221.8885,-33.3650,4.0975,40.74520075,-74.18283910,6.07999992,
4.115894,0.0979,0.5897,0.8372,0.2219,-0.0278,0.1356,-0.0639,0.0367,0.0050,9.5779,-51.0010,-53.6041,221.8885,-33.3650,4.0975,40.74520075,-74.18283910,6.07999992,
4.135370,0.0979,0.5897,0.8372,0.2219,-0.0278,0.1356,0.0200,0.0163,0.0353,9.5779,-51.0010,-53.6041,221.8885,-33.3650,4.0975,40.74520075,-74.18283910,6.07999992,
4.137162,0.0979,0.5897,0.8372,0.2424,0.4197,0.2565,0.0200,0.0163,0.0353,9.5779,-51.0010,-53.6041,221.8885,-33.3650,4.0975,40.74520075,-74.18283910,6.07999992,
4.138259,0.0979,0.5897,0.8372,0.2424,0.4197,0.2565,0.0200,0.0163,0.0353,9.5779,-51.0010,-53.6041,221.7975,-33.4436,4.1379,40.74520075,-74.18283910,6.07999992,
4.156461,0.0979,0.5897,0.8372,0.2424,0.4197,0.2565,0.0200,0.0163,0.0353,10.3821,-50.0961,-53.9505,221.7975,-33.4436,4.1379,40.74520075,-74.18283910,6.07999992,
4.169763,0.1013,0.5923,0.8446,0.2424,0.4197,0.2565,0.0200,0.0163,0.0353,10.3821,-50.0961,-53.9505,221.7975,-33.4436,4.1379,40.74520075,-74.18283910,6.07999992,
4.171328,0.1069,0.5870,0.8868,0.2424,0.4197,0.2565,0.0200,0.0163,0.0353,10.3821,-50.0961,-53.9505,221.7975,-33.4436,4.1379,40.74520075,-74.18283910,6.07999992,
4.172185,0.0996,0.5728,0.8578,0.2424,0.4197,0.2565,0.0200,0.0163,0.0353,10.3821,-50.0961,-53.9505,221.7975,-33.4436,4.1379,40.74520075,-74.18283910,6.07999992,
4.189159,0.0996,0.5728,0.8578,0.2424,0.4197,0.2565,0.1069,-0.0120,0.0860,10.3821,-50.0961,-53.9505,221.7975,-33.4436,4.1379,40.74520075,-74.18283910,6.07999992,
4.190078,0.0996,0.5728,0.8578,0.2887,0.2201,0.2346,0.1069,-0.0120,0.0860,10.3821,-50.0961,-53.9505,221.7975,-33.4436,4.1379,40.74520075,-74.18283910,6.07999992,
4.190568,0.0996,0.5728,0.8578,0.2887,0.2201,0.2346,0.1069,-0.0120,0.0860,10.3821,-50.0961,-53.9505,221.7309,-33.7903,4.3568,40.74520075,-74.18283910,6.07999992,
4.204921,0.0996,0.5728,0.8578,0.2887,0.2201,0.2346,0.1069,-0.0120,0.0860,12.0087,-50.9903,-53.0899,221.7309,-33.7903,4.3568,40.74520075,-74.18283910,6.07999992,
4.228588,0.1079,0.5582,0.7938,0.2887,0.2201,0.2346,0.1069,-0.0120,0.0860,12.0087,-50.9903,-53.0899,221.7309,-33.7903,4.3568,40.74520075,-74.18283910,6.07999992,
4.231147,0.1084,0.5579,0.7860,0.2887,0.2201,0.2346,0.1069,-0.0120,0.0860,12.0087,-50.9903,-53.0899,221.7309,-33.7903,4.3568,40.74520075,-74.18283910,6.07999992,
4.232083,0.1140,0.5565,0.7804,0.2887,0.2201,0.2346,0.1069,-0.0120,0.0860,12.0087,-50.9903,-53.0899,221.7309,-33.7903,4.3568,40.74520075,-74.18283910,6.07999992,
4.250412,0.1140,0.5565,0.7804,0.2887,0.2201,0.2346,0.1084,-0.0275,0.0449,12.0087,-50.9903,-53.0899,221.7309,-33.7903,4.3568,40.74520075,-74.18283910,6.07999992,
4.251923,0.1140,0.5565,0.7804,0.3302,0.0781,-0.3524,0.1084,-0.0275,0.0449,12.0087,-50.9903,-53.0899,221.7309,-33.7903,4.3568,40.74520075,-74.18283910,6.07999992,
4.252855,0.1140,0.5565,0.7804,0.3302,0.0781,-0.3524,0.1084,-0.0275,0.0449,12.0087,-50.9903,-53.0899,221.9509,-34.1734,4.5516,40.74520075,-74.18283910,6.07999992,
4.254838,0.1140,0.5565,0.7804,0.3302,0.0781,-0.3524,0.1084,-0.0275,0.0449,13.4018,-49.9893,-53.3279,221.9509,-34.1734,4.5516,40.74520075,-74.18283910,6.07999992,
4.286912,0.1148,0.5755,0.7796,0.3302,0.0781,-0.3524,0.1084,-0.0275,0.0449,13.4018,-49.9893,-53.3279,221.9509,-34.1734,4.5516,40.74520075,-74.18283910,6.07999992,
4.288933,0.1201,0.5950,0.8001,0.3302,0.0781,-0.3524,0.1084,-0.0275,0.0449,13.4018,-49.9893,-53.3279,221.9509,-34.1734,4.5516,40.74520075,-74.18283910,6.07999992,
4.289979,0.1160,0.6129,0.8238,0.3302,0.0781,-0.3524,0.1084,-0.0275,0.0449,13.4018,-49.9893,-53.3279,221.9509,-34.1734,4.5516,40.74520075,-74.18283910,6.07999992,
4.306329,0.1160,0.6129,0.8238,0.3302,0.0781,-0.3524,0.0002,-0.0088,-0.0439,13.4018,-49.9893,-53.3279,221.9509,-34.1734,4.5516,40.74520075,-74.18283910,6.07999992,
4.307895,0.1160,0.6129,0.8238,0.3548,0.5257,0.1072,0.0002,-0.0088,-0.0439,13.4018,-49.9893,-53.3279,221.9509,-34.1734,4.5516,40.74520075,-74.18283910,6.07999992,
4.308883,0.1160,0.6129,0.8238,0.3548,0.5257,0.1072,0.0002,-0.0088,-0.0439,13.4018,-49.9893,-53.3279,222.8000,-34.2227,4.5256,40.74520075,-74.18283910,6.07999992,
4.345214,0.1074,0.6224,0.8631,0.3548,0.5257,0.1072,0.0002,-0.0088,-0.0439,13.4018,-49.9893,-53.3279,222.8000,-34.2227,4.5256,40.74520075,-74.18283910,6.07999992,
4.347654,0.0952,0.6312,0.8812,0.3548,0.5257,0.1072,0.0002,-0.0088,-0.0439,13.4018,-49.9893,-53.3279,222.8000,-34.2227,4.5256,40.74520075,-74.18283910,6.07999992,
4.349120,0.0869,0.6314,0.8363,0.3548,0.5257,0.1072,0.0002,-0.0088,-0.0439,13.4018,-49.9893,-53.3279,222.8000,-34.2227,4.5256,40.74520075,-74.18283910,6.07999992,
4.355136,0.0869,0.6314,0.8363,0.3548,0.5257,0.1072,0.0002,-0.0088,-0.0439,14.3967,-50.4913,-51.5259,222.8000,-34.2227,4.5256,40.74520075,-74.18283910,6.07999992,
4.367704,0.0869,0.6314,0.8363,0.3548,0.5257,0.1072,0.0813,0.0018,-0.0769,14.3967,-50.4913,-51.5259,222.8000,-34.2227,4.5256,40.74520075,-74.18283910,6.07999992,
4.370523,0.0869,0.6314,0.8363,0.1174,0.6339,0.1834,0.0813,0.0018,-0.0769,14.3967,-50.4913,-51.5259,222.8000,-34.2227,4.5256,40.74520075,-74.18283910,6.07999992,
4.371858,0.0869,0.6314,0.8363,0.1174,0.6339,0.1834,0.0813,0.0018,-0.0769,14.3967,-50.4913,-51.5259,223.6621,-34.5526,4.3833,40.74520075,-74.18283910,6.07999992,
4.403127,0.0816,0.6168,0.7860,0.1174,0.6339,0.1834,0.0813,0.0018,-0.0769,14.3967,-50.4913,-51.5259,223.6621,-34.5526,4.3833,40.74520075,-74.18283910,6.07999992,
4.404598,0.0696,0.5992,0.7923,0.1174,0.6339,0.1834,0.0813,0.0018,-0.0769,14.3967,-50.4913,-51.5259,223.6621,-34.5526,4.3833,40.74520075,-74.18283910,6.07999992,
4.405564,0.0586,0.5843,0.8226,0.1174,0.6339,0.1834,0.0813,0.0018,-0.0769,14.3967,-50.4913,-51.5259,223.6621,-34.5526,4.3833,40.74520075,-74.18283910,6.07999992,
4.406392,0.0586,0.5843,0.8226,0.1174,0.6339,0.1834,0.0813,0.0018,-0.0769,17.2424,-48.4406,-49.8215,223.6621,-34.5526,4.3833,40.74520075,-74.18283910,6.07999992,
4.422609,0.0586,0.5843,0.8226,0.1174,0.6339,0.1834,0.1047,0.0051,-0.0873,17.2424,-48.4406,-49.8215,223.6621,-34.5526,4.3833,40.74520075,-74.18283910,6.07999992,
4.424171,0.0586,0.5843,0.8226,-0.1212,0.1804,-0.0682,0.1047,0.0051,-0.0873,17.2424,-48.4406,-49.8215,223.6621,-34.5526,4.3833,40.74520075,-74.18283910,6.07999992,
4.425632,0.0586,0.5843,0.8226,-0.1212,0.1804,-0.0682,0.1047,0.0051,-0.0873,17.2424,-48.4406,-49.8215,224.7307,-34.9388,4.1906,40.74520075,-74.18283910,6.07999992,
4.454798,0.0586,0.5843,0.8226,-0.1212,0.1804,-0.0682,0.1047,0.0051,-0.0873,20.0653,-49.0250,-47.0184,224.7307,-34.9388,4.1906,40.74520075,-74.18283910,6.07999992,
4.461944,0.0525,0.5740,0.8009,-0.1212,0.1804,-0.0682,0.1047,0.0051,-0.0873,20.0653,-49.0250,-47.0184,224.7307,-34.9388,4.1906,40.74520075,-74.18283910,6.07999992,
4.463011,0.0444,0.5601,0.7428,-0.1212,0.1804,-0.0682,0.1047,0.0051,-0.0873,20.0653,-49.0250,-47.0184,224.7307,-34.9388,4.1906,40.74520075,-74.18283910,6.07999992,
4.463861,0.0403,0.5540,0.7052,-0.1212,0.1804,-0.0682,0.1047,0.0051,-0.0873,20.0653,-49.0250,-47.0184,224.7307,-34.9388,4.1906,40.74520075,-74.18283910,6.07999992,
4.481372,0.0403,0.5540,0.7052,-0.1212,0.1804,-0.0682,0.1027,-0.0018,-0.1007,20.0653,-49.0250,-47.0184,224.7307,-34.9388,4.1906,40.74520075,-74.18283910,6.07999992,
4.482878,0.0403,0.5540,0.7052,-0.2759,-0.1620,-0.8191,0.1027,-0.0018,-0.1007,20.0653,-49.0250,-47.0184,224.7307,-34.9388,4.1906,40.74520075,-74.18283910,6.07999992,
4.484189,0.0403,0.5540,0.7052,-0.2759,-0.1620,-0.8191,0.1027,-0.0018,-0.1007,20.0653,-49.0250,-47.0184,225.8785,-35.3363,3.9796,40.74520075,-74.18283910,6.07999992,
4.520046,0.0374,0.5535,0.7235,-0.2759,-0.1620,-0.8191,0.1027,-0.0018,-0.1007,20.0653,-49.0250,-47.0184,225.8785,-35.3363,3.9796,40.74520075,-74.18283910,6.07999992,
4.521493,0.0498,0.5601,0.7833,-0.2759,-0.1620,-0.8191,0.1027,-0.0018,-0.1007,20.0653,-49.0250,-47.0184,225.8785,-35.3363,3.9796,40.74520075,-74.18283910,6.07999992,
4.522226,0.0381,0.5701,0.8021,-0.2759,-0.1620,-0.8191,0.1027,-0.0018,-0.1007,20.0653,-49.0250,-47.0184,225.8785,-35.3363,3.9796,40.74520075,-74.18283910,6.07999992,
4.539437,0.0381,0.5701,0.8021,-0.2759,-0.1620,-0.8191,-0.0376,0.0167,-0.0734,20.0653,-49.0250,-47.0184,225.8785,-35.3363,3.9796,40.74520075,-74.18283910,6.07999992,
4.541645,0.0381,0.5701,0.8021,-0.2582,-0.0227,-0.2221,-0.0376,0.0167,-0.0734,20.0653,-49.0250,-47.0184,225.8785,-35.3363,3.9796,40.74520075,-74.18283910,6.07999992,
4.542713,0.0381,0.5701,0.8021,-0.2582,-0.0227,-0.2221,-0.0376,0.0167,-0.0734,20.0653,-49.0250,-47.0184,226.1876,-35.2329,3.7675,40.74520075,-74.18283910,6.07999992,
4.558486,0.0381,0.5701,0.8021,-0.2582,-0.0227,-0.2221,-0.0376,0.0167,-0.0734,20.5399,-50.6058,-45.2805,226.1876,-35.2329,3.7675,40.74520075,-74.18283910,6.07999992,
4.580292,0.0286,0.5755,0.7716,-0.2582,-0.0227,-0.2221,-0.0376,0.0167,-0.0734,20.5399,-50.6058,-45.2805,226.1876,-35.2329,3.7675,40.74520075,-74.18283910,6.07999992,
4.583039,0.0261,0.5779,0.7855,-0.2582,-0.0227,-0.2221,-0.0376,0.0167,-0.0734,20.5399,-50.6058,-45.2805,226.1876,-35.2329,3.7675,40.74520075,-74.18283910,6.07999992,
4.584081,0.0317,0.5696,0.8004,-0.2582,-0.0227,-0.2221,-0.0376,0.0167,-0.0734,20.5399,-50.6058,-45.2805,226.1876,-35.2329,3.7675,40.74520075,-74.18283910,6.07999992,
4.601708,0.0317,0.5696,0.8004,-0.2582,-0.0227,-0.2221,-0.0313,0.0269,-0.0156,20.5399,-50.6058,-45.2805,226.1876,-35.2329,3.7675,40.74520075,-74.18283910,6.07999992,
4.603547,0.0317,0.5696,0.8004,-0.2727,-0.0008,-0.1769,-0.0313,0.0269,-0.0156,20.5399,-50.6058,-45.2805,226.1876,-35.2329,3.7675,40.74520075,-74.18283910,6.07999992,
4.605211,0.0317,0.5696,0.8004,-0.2727,-0.0008,-0.1769,-0.0313,0.0269,-0.0156,20.5399,-50.6058,-45.2805,226.7678,-35.1378,3.6377,40.74520075,-74.18283910,6.07999992,
4.606635,0.0317,0.5696,0.8004,-0.2727,-0.0008,-0.1769,-0.0313,0.0269,-0.0156,21.2540,-51.7929,-47.7509,226.7678,-35.1378,3.6377,40.74520075,-74.18283910,6.07999992,
4.637085,0.0474,0.5606,0.7874,-0.2727,-0.0008,-0.1769,-0.0313,0.0269,-0.0156,21.2540,-51.7929,-47.7509,226.7678,-35.1378,3.6377,40.74520075,-74.18283910,6.07999992,
4.639486,0.0525,0.5482,0.7696,-0.2727,-0.0008,-0.1769,-0.0313,0.0269,-0.0156,21.2540,-51.7929,-47.7509,226.7678,-35.1378,3.6377,40.74520075,-74.18283910,6.07999992,
4.640822,0.0696,0.5337,0.7755,-0.2727,-0.0008,-0.1769,-0.0313,0.0269,-0.0156,21.2540,-51.7929,-47.7509,226.7678,-35.1378,3.6377,40.74520075,-74.18283910,6.07999992,
4.654768,0.0696,0.5337,0.7755,-0.2727,-0.0008,-0.1769,-0.0313,0.0269,-0.0156,20.6802,-52.2339,-46.5851,226.7678,-35.1378,3.6377,40.74520075,-74.18283910,6.07999992,
4.657018,0.0696,0.5337,0.7755,-0.2727,-0.0008,-0.1769,-0.0260,-0.0257,0.0774,20.6802,-52.2339,-46.5851,226.7678,-35.1378,3.6377,40.74520075,-74.18283910,6.07999992,
4.658194,0.0696,0.5337,0.7755,-0.2727,-0.0008,-0.1769,-0.0260,-0.0257,0.0774,20.6802,-52.2339,-46.5851,227.4135,-35.0330,3.8588,40.74520075,-74.18283910,6.07999992,
4.659244,0.0696,0.5337,0.7755,-0.0050,-0.2708,-0.2629,-0.0260,-0.0257,0.0774,20.6802,-52.2339,-46.5851,227.4135,-35.0330,3.8588,40.74520075,-74.18283910,6.07999992,
4.695402,0.0764,0.5377,0.8028,-0.0050,-0.2708,-0.2629,-0.0260,-0.0257,0.0774,20.6802,-52.2339,-46.5851,227.4135,-35.0330,3.8588,40.74520075,-74.18283910,6.07999992,
4.697365,0.0835,0.5384,0.7938,-0.0050,-0.2708,-0.2629,-0.0260,-0.0257,0.0774,20.6802,-52.2339,-46.5851,227.4135,-35.0330,3.8588,40.74520075,-74.18283910,6.07999992,
4.698433,0.0911,0.5450,0.7801,-0.0050,-0.2708,-0.2629,-0.0260,-0.0257,0.0774,20.6802,-52.2339,-46.5851,227.4135,-35.0330,3.8588,40.74520075,-74.18283910,6.07999992,
4.714646,0.0911,0.5450,0.7801,-0.0050,-0.2708,-0.2629,-0.0319,-0.0377,0.0569,20.6802,-52.2339,-46.5851,227.4135,-35.0330,3.8588,40.74520075,-74.18283910,6.07999992,
4.716385,0.0911,0.5450,0.7801,-0.0050,-0.2708,-0.2629,-0.0319,-0.0377,0.0569,20.6802,-52.2339,-46.5851,227.2103,-34.9188,4.0928,40.74520075,-74.18283910,6.07999992,
4.718436,0.0911,0.5450,0.7801,0.1943,-0.2111,-0.2735,-0.0319,-0.0377,0.0569,20.6802,-52.2339,-46.5851,227.2103,-34.9188,4.0928,40.74520075,-74.18283910,6.07999992,
4.753538,0.0969,0.5482,0.7721,0.1943,-0.2111,-0.2735,-0.0319,-0.0377,0.0569,20.6802,-52.2339,-46.5851,227.2103,-34.9188,4.0928,40.74520075,-74.18283910,6.07999992,
4.755320,0.0996,0.5538,0.7620,0.1943,-0.2111,-0.2735,-0.0319,-0.0377,0.0569,20.6802,-52.2339,-46.5851,227.2103,-34.9188,4.0928,40.74520075,-74.18283910,6.07999992,
4.757089,0.0940,0.5589,0.8048,0.1943,-0.2111,-0.2735,-0.0319,-0.0377,0.0569,20.6802,-52.2339,-46.5851,227.2103,-34.9188,4.0928,40.74520075,-74.18283910,6.07999992,
4.760227,0.0940,0.5589,0.8048,0.1943,-0.2111,-0.2735,-0.0319,-0.0377,0.0569,21.0464,-45.1675,-38.6612,227.2103,-34.9188,4.0928,40.74520075,-74.18283910,6.07999992,
4.773175,0.0940,0.5589,0.8048,0.1943,-0.2111,-0.2735,-0.0952,-0.0261,-0.0152,21.0464,-45.1675,-38.6612,227.2103,-34.9188,4.0928,40.74520075,-74.18283910,6.07999992,
4.775134,0.0940,0.5589,0.8048,0.1926,-0.0291,0.0266,-0.0952,-0.0261,-0.0152,21.0464,-45.1675,-38.6612,227.2103,-34.9188,4.0928,40.74520075,-74.18283910,6.07999992,
4.776224,0.0940,0.5589,0.8048,0.1926,-0.0291,0.0266,-0.0952,-0.0261,-0.0152,21.0464,-45.1675,-38.6612,227.7937,-34.6030,4.1547,40.74520075,-74.18283910,6.07999992,
4.804829,0.0940,0.5589,0.8048,0.1926,-0.0291,0.0266,-0.0952,-0.0261,-0.0152,22.7036,-42.2516,-34.3307,227.7937,-34.6030,4.1547,40.74520075,-74.18283910,6.07999992,
4.812096,0.0806,0.5611,0.8802,0.1926,-0.0291,0.0266,-0.0952,-0.0261,-0.0152,22.7036,-42.2516,-34.3307,227.7937,-34.6030,4.1547,40.74520075,-74.18283910,6.07999992,
4.813835,0.0671,0.5628,0.8546,0.1926,-0.0291,0.0266,-0.0952,-0.0261,-0.0152,22.7036,-42.2516,-34.3307,227.7937,-34.6030,4.1547,40.74520075,-74.18283910,6.07999992,
4.815374,0.0579,0.5674,0.7974,0.1926,-0.0291,0.0266,-0.0952,-0.0261,-0.0152,22.7036,-42.2516,-34.3307,227.7937,-34.6030,4.1547,40.74520075,-74.18283910,6.07999992,
4.832608,0.0579,0.5674,0.7974,0.1926,-0.0291,0.0266,-0.0513,-0.0094,-0.0274,22.7036,-42.2516,-34.3307,227.7937,-34.6030,4.1547,40.74520075,-74.18283910,6.07999992,
4.834809,0.0579,0.5674,0.7974,-0.0949,0.0848,0.0873,-0.0513,-0.0094,-0.0274,22.7036,-42.2516,-34.3307,227.7937,-34.6030,4.1547,40.74520075,-74.18283910,6.07999992,
4.836136,0.0579,0.5674,0.7974,-0.0949,0.0848,0.0873,-0.0513,-0.0094,-0.0274,22.7036,-42.2516,-34.3307,228.4170,-34.4403,4.1182,40.74520075,-74.18283910,6.07999992,
4.855715,0.0579,0.5674,0.7974,-0.0949,0.0848,0.0873,-0.0513,-0.0094,-0.0274,26.2283,-37.3749,-29.9194,228.4170,-34.4403,4.1182,40.74520075,-74.18283910,6.07999992,
4.871925,0.0593,0.5718,0.8189,-0.0949,0.0848,0.0873,-0.0513,-0.0094,-0.0274,26.2283,-37.3749,-29.9194,228.4170,-34.4403,4.1182,40.74520075,-74.18283910,6.07999992,
4.876198,0.0537,0.5787,0.8934,-0.0949,0.0848,0.0873,-0.0513,-0.0094,-0.0274,26.2283,-37.3749,-29.9194,228.4170,-34.4403,4.1182,40.74520075,-74.18283910,6.07999992,
4.878493,0.0557,0.5855,0.9007,-0.0949,0.0848,0.0873,-0.0513,-0.0094,-0.0274,26.2283,-37.3749,-29.9194,228.4170,-34.4403,4.1182,40.74520075,-74.18283910,6.07999992,
4.891304,0.0557,0.5855,0.9007,-0.1604,0.2715,0.6084,-0.0513,-0.0094,-0.0274,26.2283,-37.3749,-29.9194,228.4170,-34.4403,4.1182,40.74520075,-74.18283910,6.07999992,
4.895111,0.0557,0.5855,0.9007,-0.1604,0.2715,0.6084,-0.0513,-0.0094,-0.0274,26.2283,-37.3749,-29.9194,229.1902,-34.2529,4.1188,40.74520075,-74.18283910,6.07999992,
4.898577,0.0557,0.5855,0.9007,-0.1604,0.2715,0.6084,-0.0535,-0.0132,-0.0081,26.2283,-37.3749,-29.9194,229.1902,-34.2529,4.1188,40.74520075,-74.18283910,6.07999992,
4.929044,0.0552,0.5889,0.8446,-0.1604,0.2715,0.6084,-0.0535,-0.0132,-0.0081,26.2283,-37.3749,-29.9194,229.1902,-34.2529,4.1188,40.74520075,-74.18283910,6.07999992,
4.931362,0.0562,0.5809,0.8062,-0.1604,0.2715,0.6084,-0.0535,-0.0132,-0.0081,26.2283,-37.3749,-29.9194,229.1902,-34.2529,4.1188,40.74520075,-74.18283910,6.07999992,
4.932760,0.0686,0.5745,0.8382,-0.1604,0.2715,0.6084,-0.0535,-0.0132,-0.0081,26.2283,-37.3749,-29.9194,229.1902,-34.2529,4.1188,40.74520075,-74.18283910,6.07999992,
4.948053,0.0686,0.5745,0.8382,-0.1604,0.2715,0.6084,0.0009,-0.0067,-0.0020,26.2283,-37.3749,-29.9194,229.1902,-34.2529,4.1188,40.74520075,-74.18283910,6.07999992,
4.949287,0.0686,0.5745,0.8382,-0.0809,0.1944,0.1368,0.0009,-0.0067,-0.0020,26.2283,-37.3749,-29.9194,229.1902,-34.2529,4.1188,40.74520075,-74.18283910,6.07999992,
4.950096,0.0686,0.5745,0.8382,-0.0809,0.1944,0.1368,0.0009,-0.0067,-0.0020,26.2283,-37.3749,-29.9194,229.2056,-34.2654,4.1240,40.74520075,-74.18283910,6.07999992,
4.954606,0.0686,0.5745,0.8382,-0.0809,0.1944,0.1368,0.0009,-0.0067,-0.0020,30.2795,-35.4675,-29.6646,229.2056,-34.2654,4.1240,40.74520075,-74.18283910,6.07999992,
4.986787,0.0645,0.5753,0.8504,-0.0809,0.1944,0.1368,0.0009,-0.0067,-0.0020,30.2795,-35.4675,-29.6646,229.2056,-34.2654,4.1240,40.74520075,-74.18283910,6.07999992,
4.987779,0.0708,0.5552,0.8009,-0.0809,0.1944,0.1368,0.0009,-0.0067,-0.0020,30.2795,-35.4675,-29.6646,229.2056,-34.2654,4.1240,40.74520075,-74.18283910,6.07999992,
4.988273,0.0623,0.5684,0.8236,-0.0809,0.1944,0.1368,0.0009,-0.0067,-0.0020,30.2795,-35.4675,-29.6646,229.2056,-34.2654,4.1240,40.74520075,-74.18283910,6.07999992,
5.005597,0.0623,0.5684,0.8236,-0.0809,0.1944,0.1368,0.0009,-0.0067,-0.0020,31.4316,-34.4864,-25.3357,229.2056,-34.2654,4.1240,40.74520075,-74.18283910,6.07999992,
5.007126,0.0623,0.5684,0.8236,-0.0809,0.1944,0.1368,0.0096,0.0037,-0.0030,31.4316,-34.4864,-25.3357,229.2056,-34.2654,4.1240,40.74520075,-74.18283910,6.07999992,
5.007966,0.0623,0.5684,0.8236,-0.0809,0.0164,0.0402,0.0096,0.0037,-0.0030,31.4316,-34.4864,-25.3357,229.2056,-34.2654,4.1240,40.74520075,-74.18283910,6.07999992,
5.008909,0.0623,0.5684,0.8236,-0.0809,0.0164,0.0402,0.0096,0.0037,-0.0030,31.4316,-34.4864,-25.3357,231.1462,-34.2967,4.0998,40.74520075,-74.18283910,6.07999992,
5.047436,0.0549,0.5540,0.8402,-0.0809,0.0164,0.0402,0.0096,0.0037,-0.0030,31.4316,-34.4864,-25.3357,231.1462,-34.2967,4.0998,40.74520075,-74.18283910,6.07999992,
5.049090,0.0518,0.5633,0.8101,-0.0809,0.0164,0.0402,0.0096,0.0037,-0.0030,31.4316,-34.4864,-25.3357,231.1462,-34.2967,4.0998,40.74520075,-74.18283910,6.07999992,
5.050143,0.0525,0.5555,0.7874,-0.0809,0.0164,0.0402,0.0096,0.0037,-0.0030,31.4316,-34.4864,-25.3357,231.1462,-34.2967,4.0998,40.74520075,-74.18283910,6.07999992,
5.055908,0.0525,0.5555,0.7874,-0.0809,0.0164,0.0402,0.0096,0.0037,-0.0030,33.1680,-34.0210,-16.2689,231.1462,-34.2967,4.0998,40.74520075,-74.18283910,6.07999992,
5.065333,0.0525,0.5555,0.7874,-0.0809,0.0164,0.0402,-0.0040,0.0487,0.0123,33.1680,-34.0210,-16.2689,231.1462,-34.2967,4.0998,40.74520075,-74.18283910,6.07999992,
5.070161,0.0525,0.5555,0.7874,-0.1606,0.0145,-0.1652,-0.0040,0.0487,0.0123,33.1680,-34.0210,-16.2689,231.1462,-34.2967,4.0998,40.74520075,-74.18283910,6.07999992,
5.075615,0.0525,0.5555,0.7874,-0.1606,0.0145,-0.1652,-0.0040,0.0487,0.0123,33.1680,-34.0210,-16.2689,231.6320,-34.2849,3.9734,40.74520075,-74.18283910,6.07999992,
5.104908,0.0527,0.5577,0.8043,-0.1606,0.0145,-0.1652,-0.0040,0.0487,0.0123,33.1680,-34.0210,-16.2689,231.6320,-34.2849,3.9734,40.74520075,-74.18283910,6.07999992,
5.106404,0.0628,0.5538,0.8490,-0.1606,0.0145,-0.1652,-0.0040,0.0487,0.0123,33.1680,-34.0210,-16.2689,231.6320,-34.2849,3.9734,40.74521266,-74.18288552,5.09999990,
5.107250,0.0684,0.5572,0.8702,-0.1606,0.0145,-0.1652,-0.0040,0.0487,0.0123,33.1680,-34.0210,-16.2689,231.6320,-34.2849,3.9734,40.74521266,-74.18288552,5.09999990,
5.123361,0.0684,0.5572,0.8702,-0.1606,0.0145,-0.1652,-0.0492,0.0039,0.0473,33.1680,-34.0210,-16.2689,231.6320,-34.2849,3.9734,40.74521266,-74.18288552,5.09999990,
5.124789,0.0684,0.5572,0.8702,-0.0172,0.0137,0.3757,-0.0492,0.0039,0.0473,33.1680,-34.0210,-16.2689,231.6320,-34.2849,3.9734,40.74521266,-74.18288552,5.09999990,
5.125685,0.0684,0.5572,0.8702,-0.0172,0.0137,0.3757,-0.0492,0.0039,0.0473,33.1680,-34.0210,-16.2689,231.4222,-34.0906,4.0477,40.74521266,-74.18288552,5.09999990,
5.155513,0.0684,0.5572,0.8702,-0.0172,0.0137,0.3757,-0.0492,0.0039,0.0473,33.1909,-34.2026,-8.6929,231.4222,-34.0906,4.0477,40.74521266,-74.18288552,5.09999990,
5.162997,0.0737,0.5577,0.8551,-0.0172,0.0137,0.3757,-0.0492,0.0039,0.0473,33.1909,-34.2026,-8.6929,231.4222,-34.0906,4.0477,40.74521266,-74.18288552,5.09999990,
5.164443,0.0720,0.5582,0.8199,-0.0172,0.0137,0.3757,-0.0492,0.0039,0.0473,33.1909,-34.2026,-8.6929,231.4222,-34.0906,4.0477,40.74521266,-74.18288552,5.09999990,
5.165501,0.0879,0.5521,0.8126,-0.0172,0.0137,0.3757,-0.0492,0.0039,0.0473,33.1909,-34.2026,-8.6929,231.4222,-34.0906,4.0477,40.74521266,-74.18288552,5.09999990,
5.182159,0.0879,0.5521,0.8126,-0.0172,0.0137,0.3757,-0.0189,0.0216,0.0558,33.1909,-34.2026,-8.6929,231.4222,-34.0906,4.0477,40.74521266,-74.18288552,5.09999990,
5.183208,0.0879,0.5521,0.8126,0.1152,0.0220,0.0701,-0.0189,0.0216,0.0558,33.1909,-34.2026,-8.6929,231.4222,-34.0906,4.0477,40.74521266,-74.18288552,5.09999990,
5.183821,0.0879,0.5521,0.8126,0.1152,0.0220,0.0701,-0.0189,0.0216,0.0558,33.1909,-34.2026,-8.6929,231.3423,-34.0115,4.1034,40.74521266,-74.18288552,5.09999990,
5.205998,0.0879,0.5521,0.8126,0.1152,0.0220,0.0701,-0.0189,0.0216,0.0558,32.3090,-37.1506,-0.0443,231.3423,-34.0115,4.1034,40.74521266,-74.18288552,5.09999990,
5.220140,0.0884,0.5577,0.8507,0.1152,0.0220,0.0701,-0.0189,0.0216,0.0558,32.3090,-37.1506,-0.0443,231.3423,-34.0115,4.1034,40.74521266,-74.18288552,5.09999990,
5.221356,0.0940,0.5550,0.8477,0.1152,0.0220,0.0701,-0.0189,0.0216,0.0558,32.3090,-37.1506,-0.0443,231.3423,-34.0115,4.1034,40.74521266,-74.18288552,5.09999990,
5.221927,0.0921,0.5613,0.8111,0.1152,0.0220,0.0701,-0.0189,0.0216,0.0558,32.3090,-37.1506,-0.0443,231.3423,-34.0115,4.1034,40.74521266,-74.18288552,5.09999990,
5.240161,0.0921,0.5613,0.8111,0.1152,0.0220,0.0701,0.0131,0.0012,0.0308,32.3090,-37.1506,-0.0443,231.3423,-34.0115,4.1034,40.74521266,-74.18288552,5.09999990,
5.241274,0.0921,0.5613,0.8111,0.2321,0.0396,-0.0101,0.0131,0.0012,0.0308,32.3090,-37.1506,-0.0443,231.3423,-34.0115,4.1034,40.74521266,-74.18288552,5.09999990,
5.241803,0.0921,0.5613,0.8111,0.2321,0.0396,-0.0101,0.0131,0.0012,0.0308,32.3090,-37.1506,-0.0443,230.7669,-34.0527,4.1807,40.74521266,-74.18288552,5.09999990,
5.260686,0.0921,0.5613,0.8111,0.2321,0.0396,-0.0101,0.0131,0.0012,0.0308,30.8441,-43.7805,1.7136,230.7669,-34.0527,4.1807,40.74521266,-74.18288552,5.09999990,
5.279386,0.1021,0.5587,0.7984,0.2321,0.0396,-0.0101,0.0131,0.0012,0.0308,30.8441,-43.7805,1.7136,230.7669,-34.0527,4.1807,40.74521266,-74.18288552,5.09999990,
5.281243,0.1011,0.5694,0.8670,0.2321,0.0396,-0.0101,0.0131,0.0012,0.0308,30.8441,-43.7805,1.7136,230.7669,-34.0527,4.1807,40.74521266,-74.18288552,5.09999990,
5.282419,0.0857,0.5660,0.9095,0.2321,0.0396,-0.0101,0.0131,0.0012,0.0308,30.8441,-43.7805,1.7136,230.7669,-34.0527,4.1807,40.74521266,-74.18288552,5.09999990,
5.298581,0.0857,0.5660,0.9095,0.2321,0.0396,-0.0101,0.0318,-0.0242,-0.0339,30.8441,-43.7805,1.7136,230.7669,-34.0527,4.1807,40.74521266,-74.18288552,5.09999990,
5.300229,0.0857,0.5660,0.9095,0.0786,0.0849,0.4315,0.0318,-0.0242,-0.0339,30.8441,-43.7805,1.7136,230.7669,-34.0527,4.1807,40.74521266,-74.18288552,5.09999990,
5.302322,0.0857,0.5660,0.9095,0.0786,0.0849,0.4315,0.0318,-0.0242,-0.0339,30.8441,-43.7805,1.7136,229.9380,-34.1520,4.1890,40.74521266,-74.18288552,5.09999990,
5.337042,0.0549,0.5589,0.8148,0.0786,0.0849,0.4315,0.0318,-0.0242,-0.0339,30.8441,-43.7805,1.7136,229.9380,-34.1520,4.1890,40.74521266,-74.18288552,5.09999990,
5.338403,0.0437,0.5384,0.7186,0.0786,0.0849,0.4315,0.0318,-0.0242,-0.0339,30.8441,-43.7805,1.7136,229.9380,-34.1520,4.1890,40.74521266,-74.18288552,5.09999990,
5.339589,0.0435,0.5225,0.7508,0.0786,0.0849,0.4315,0.0318,-0.0242,-0.0339,30.8441,-43.7805,1.7136,229.9380,-34.1520,4.1890,40.74521266,-74.18288552,5.09999990,
5.354558,0.0435,0.5225,0.7508,0.0786,0.0849,0.4315,0.0318,-0.0242,-0.0339,27.2812,-50.0107,2.3209,229.9380,-34.1520,4.1890,40.74521266,-74.18288552,5.09999990,
5.356851,0.0435,0.5225,0.7508,0.0786,0.0849,0.4315,0.0768,0.0073,-0.0667,27.2812,-50.0107,2.3209,229.9380,-34.1520,4.1890,40.74521266,-74.18288552,5.09999990,
5.357888,0.0435,0.5225,0.7508,-0.2764,-0.3664,-0.5699,0.0768,0.0073,-0.0667,27.2812,-50.0107,2.3209,229.9380,-34.1520,4.1890,40.74521266,-74.18288552,5.09999990,
5.358925,0.0435,0.5225,0.7508,-0.2764,-0.3664,-0.5699,0.0768,0.0073,-0.0667,27.2812,-50.0107,2.3209,228.7906,-34.4233,4.0202,40.74521266,-74.18288552,5.09999990,
5.396102,0.0369,0.5052,0.8050,-0.2764,-0.3664,-0.5699,0.0768,0.0073,-0.0667,27.2812,-50.0107,2.3209,228.7906,-34.4233,4.0202,40.74521266,-74.18288552,5.09999990,
5.397765,0.0308,0.5030,0.7791,-0.2764,-0.3664,-0.5699,0.0768,0.0073,-0.0667,27.2812,-50.0107,2.3209,228.7906,-34.4233,4.0202,40.74521266,-74.18288552,5.09999990,
5.398563,0.0325,0.5101,0.7164,-0.2764,-0.3664,-0.5699,0.0768,0.0073,-0.0667,27.2812,-50.0107,2.3209,228.7906,-34.4233,4.0202,40.74521266,-74.18288552,5.09999990,
5.404466,0.0325,0.5101,0.7164,-0.2764,-0.3664,-0.5699,0.0768,0.0073,-0.0667,20.4529,-51.1475,2.0630,228.7906,-34.4233,4.0202,40.74521266,-74.18288552,5.09999990,
5.415550,0.0325,0.5101,0.7164,-0.2764,-0.3664,-0.5699,0.0389,0.0307,-0.0152,20.4529,-51.1475,2.0630,228.7906,-34.4233,4.0202,40.74521266,-74.18288552,5.09999990,
5.417116,0.0325,0.5101,0.7164,-0.2764,-0.3664,-0.5699,0.0389,0.0307,-0.0152,20.4529,-51.1475,2.0630,227.1710,-34.5542,3.8827,40.74521266,-74.18288552,5.09999990,
5.418259,0.0325,0.5101,0.7164,-0.3023,-0.5011,-0.7587,0.0389,0.0307,-0.0152,20.4529,-51.1475,2.0630,227.1710,-34.5542,3.8827,40.74521266,-74.18288552,5.09999990,
5.453832,0.0454,0.5149,0.7137,-0.3023,-0.5011,-0.7587,0.0389,0.0307,-0.0152,20.4529,-51.1475,2.0630,227.1710,-34.5542,3.8827,40.74521266,-74.18288552,5.09999990,
5.455547,0.0557,0.5264,0.8241,-0.3023,-0.5011,-0.7587,0.0389,0.0307,-0.0152,20.4529,-51.1475,2.0630,227.1710,-34.5542,3.8827,40.74521266,-74.18288552,5.09999990,
5.456253,0.0549,0.5330,0.8809,-0.3023,-0.5011,-0.7587,0.0389,0.0307,-0.0152,20.4529,-51.1475,2.0630,227.1710,-34.5542,3.8827,40.74521266,-74.18288552,5.09999990,
5.456942,0.0549,0.5330,0.8809,-0.3023,-0.5011,-0.7587,0.0389,0.0307,-0.0152,15.6525,-50.1587,3.0106,227.1710,-34.5542,3.8827,40.74521266,-74.18288552,5.09999990,
5.474010,0.0549,0.5330,0.8809,-0.3023,-0.5011,-0.7587,-0.0450,-0.0012,0.0159,15.6525,-50.1587,3.0106,227.1710,-34.5542,3.8827,40.74521266,-74.18288552,5.09999990,
5.477092,0.0549,0.5330,0.8809,-0.1146,-0.2362,0.1826,-0.0450,-0.0012,0.0159,15.6525,-50.1587,3.0106,227.1710,-34.5542,3.8827,40.74521266,-74.18288552,5.09999990,
5.478655,0.0549,0.5330,0.8809,-0.1146,-0.2362,0.1826,-0.0450,-0.0012,0.0159,15.6525,-50.1587,3.0106,225.3162,-34.3711,3.9047,40.74521266,-74.18288552,5.09999990,
5.512354,0.0566,0.5418,0.7977,-0.1146,-0.2362,0.1826,-0.0450,-0.0012,0.0159,15.6525,-50.1587,3.0106,225.3162,-34.3711,3.9047,40.74521266,-74.18288552,5.09999990,
5.517790,0.0630,0.5435,0.7225,-0.1146,-0.2362,0.1826,-0.0450,-0.0012,0.0159,15.6525,-50.1587,3.0106,225.3162,-34.3711,3.9047,40.74521266,-74.18288552,5.09999990,
5.519104,0.0847,0.5506,0.7689,-0.1146,-0.2362,0.1826,-0.0450,-0.0012,0.0159,15.6525,-50.1587,3.0106,225.3162,-34.3711,3.9047,40.74521266,-74.18288552,5.09999990,
5.532696,0.0847,0.5506,0.7689,-0.1146,-0.2362,0.1826,-0.0358,-0.0320,0.0489,15.6525,-50.1587,3.0106,225.3162,-34.3711,3.9047,40.74521266,-74.18288552,5.09999990,
5.536681,0.0847,0.5506,0.7689,0.1248,-0.0477,-0.2445,-0.0358,-0.0320,0.0489,15.6525,-50.1587,3.0106,225.3162,-34.3711,3.9047,40.74521266,-74.18288552,5.09999990,
5.538055,0.0847,0.5506,0.7689,0.1248,-0.0477,-0.2445,-0.0358,-0.0320,0.0489,15.6525,-50.1587,3.0106,225.1478,-34.2560,4.0993,40.74521266,-74.18288552,5.09999990,
5.555115,0.0847,0.5506,0.7689,0.1248,-0.0477,-0.2445,-0.0358,-0.0320,0.0489,12.7960,-47.3618,4.9698,225.1478,-34.2560,4.0993,40.74521266,-74.18288552,5.09999990,
5.572064,0.1028,0.5589,0.8824,0.1248,-0.0477,-0.2445,-0.0358,-0.0320,0.0489,12.7960,-47.3618,4.9698,225.1478,-34.2560,4.0993,40.74521266,-74.18288552,5.09999990,
5.575115,0.0964,0.5657,0.8946,0.1248,-0.0477,-0.2445,-0.0358,-0.0320,0.0489,12.7960,-47.3618,4.9698,225.1478,-34.2560,4.0993,40.74521266,-74.18288552,5.09999990,
5.576540,0.0803,0.5667,0.8175,0.1248,-0.0477,-0.2445,-0.0358,-0.0320,0.0489,12.7960,-47.3618,4.9698,225.1478,-34.2560,4.0993,40.74521266,-74.18288552,5.09999990,
5.590370,0.0803,0.5667,0.8175,0.1248,-0.0477,-0.2445,0.0041,0.0022,-0.0154,12.7960,-47.3618,4.9698,225.1478,-34.2560,4.0993,40.74521266,-74.18288552,5.09999990,
5.592222,0.0803,0.5667,0.8175,0.1262,0.0722,0.1929,0.0041,0.0022,-0.0154,12.7960,-47.3618,4.9698,225.1478,-34.2560,4.0993,40.74521266,-74.18288552,5.09999990,
5.593872,0.0803,0.5667,0.8175,0.1262,0.0722,0.1929,0.0041,0.0022,-0.0154,12.7960,-47.3618,4.9698,223.4738,-34.2676,4.0753,40.74521266,-74.18288552,5.09999990,
5.607494,0.0803,0.5667,0.8175,0.1262,0.0722,0.1929,0.0041,0.0022,-0.0154,11.2091,-47.6044,2.6413,223.4738,-34.2676,4.0753,40.74521266,-74.18288552,5.09999990,
5.629298,0.0730,0.5584,0.7962,0.1262,0.0722,0.1929,0.0041,0.0022,-0.0154,11.2091,-47.6044,2.6413,223.4738,-34.2676,4.0753,40.74521266,-74.18288552,5.09999990,
5.631222,0.0613,0.5543,0.8438,0.1262,0.0722,0.1929,0.0041,0.0022,-0.0154,11.2091,-47.6044,2.6413,223.4738,-34.2676,4.0753,40.74521266,-74.18288552,5.09999990,
5.631979,0.0613,0.5516,0.8346,0.1262,0.0722,0.1929,0.0041,0.0022,-0.0154,11.2091,-47.6044,2.6413,223.4738,-34.2676,4.0753,40.74521266,-74.18288552,5.09999990,
5.649696,0.0613,0.5516,0.8346,-0.0814,-0.0160,0.0831,0.0041,0.0022,-0.0154,11.2091,-47.6044,2.6413,223.4738,-34.2676,4.0753,40.74521266,-74.18288552,5.09999990,
5.652691,0.0613,0.5516,0.8346,-0.0814,-0.0160,0.0831,-0.0120,0.0029,-0.0185,11.2091,-47.6044,2.6413,223.4738,-34.2676,4.0753,40.74521266,-74.18288552,5.09999990,
5.654748,0.0613,0.5516,0.8346,-0.0814,-0.0160,0.0831,-0.0120,0.0029,-0.0185,11.2091,-47.6044,2.6413,221.9018,-34.2248,4.0241,40.74521266,-74.18288552,5.09999990,
5.655995,0.0613,0.5516,0.8346,-0.0814,-0.0160,0.0831,-0.0120,0.0029,-0.0185,12.1536,-48.6145,2.8091,221.9018,-34.2248,4.0241,40.74521266,-74.18288552,5.09999990,
5.687427,0.0610,0.5565,0.7979,-0.0814,-0.0160,0.0831,-0.0120,0.0029,-0.0185,12.1536,-48.6145,2.8091,221.9018,-34.2248,4.0241,40.74521266,-74.18288552,5.09999990,
5.689187,0.0623,0.5650,0.8441,-0.0814,-0.0160,0.0831,-0.0120,0.0029,-0.0185,12.1536,-48.6145,2.8091,221.9018,-34.2248,4.0241,40.74521266,-74.18288552,5.09999990,
5.690059,0.0681,0.5672,0.8954,-0.0814,-0.0160,0.0831,-0.0120,0.0029,-0.0185,12.1536,-48.6145,2.8091,221.9018,-34.2248,4.0241,40.74521266,-74.18288552,5.09999990,
5.706992,0.0681,0.5672,0.8954,-0.0814,-0.0160,0.0831,-0.0576,-0.0071,-0.0207,12.1536,-48.6145,2.8091,221.9018,-34.2248,4.0241,40.74521266,-74.18288552,5.09999990,
5.708643,0.0681,0.5672,0.8954,-0.0573,0.1480,0.5205,-0.0576,-0.0071,-0.0207,12.1536,-48.6145,2.8091,221.9018,-34.2248,4.0241,40.74521266,-74.18288552,5.09999990,
5.709919,0.0681,0.5672,0.8954,-0.0573,0.1480,0.5205,-0.0576,-0.0071,-0.0207,12.1536,-48.6145,2.8091,220.4467,-34.0202,3.9957,40.74521266,-74.18288552,5.09999990,
5.745660,0.0593,0.5731,0.8790,-0.0573,0.1480,0.5205,-0.0576,-0.0071,-0.0207,12.1536,-48.6145,2.8091,220.4467,-34.0202,3.9957,40.74521266,-74.18288552,5.09999990,
5.747302,0.0696,0.5777,0.8360,-0.0573,0.1480,0.5205,-0.0576,-0.0071,-0.0207,12.1536,-48.6145,2.8091,220.4467,-34.0202,3.9957,40.74521266,-74.18288552,5.09999990,
5.748487,0.0794,0.5792,0.8350,-0.0573,0.1480,0.5205,-0.0576,-0.0071,-0.0207,12.1536,-48.6145,2.8091,220.4467,-34.0202,3.9957,40.74521266,-74.18288552,5.09999990,
5.754434,0.0794,0.5792,0.8350,-0.0573,0.1480,0.5205,-0.0576,-0.0071,-0.0207,13.0783,-48.4833,2.4063,220.4467,-34.0202,3.9957,40.74521266,-74.18288552,5.09999990,
5.766234,0.0794,0.5792,0.8350,-0.0573,0.1480,0.5205,0.0092,0.0085,0.0080,13.0783,-48.4833,2.4063,220.4467,-34.0202,3.9957,40.74521266,-74.18288552,5.09999990,
5.767730,0.0794,0.5792,0.8350,0.0840,0.2349,0.2422,0.0092,0.0085,0.0080,13.0783,-48.4833,2.4063,220.4467,-34.0202,3.9957,40.74521266,-74.18288552,5.09999990,
5.768859,0.0794,0.5792,0.8350,0.0840,0.2349,0.2422,0.0092,0.0085,0.0080,13.0783,-48.4833,2.4063,219.0443,-34.0542,3.9930,40.74521266,-74.18288552,5.09999990,
5.804428,0.0840,0.5775,0.8626,0.0840,0.2349,0.2422,0.0092,0.0085,0.0080,13.0783,-48.4833,2.4063,219.0443,-34.0542,3.9930,40.74521266,-74.18288552,5.09999990,
5.806416,0.0789,0.5713,0.8712,0.0840,0.2349,0.2422,0.0092,0.0085,0.0080,13.0783,-48.4833,2.4063,219.0443,-34.0542,3.9930,40.74521266,-74.18288552,5.09999990,
5.807316,0.0681,0.5606,0.8639,0.0840,0.2349,0.2422,0.0092,0.0085,0.0080,13.0783,-48.4833,2.4063,219.0443,-34.0542,3.9930,40.74521266,-74.18288552,5.09999990,
5.808028,0.0681,0.5606,0.8639,0.0840,0.2349,0.2422,0.0092,0.0085,0.0080,14.2776,-48.2239,1.0239,219.0443,-34.0542,3.9930,40.74521266,-74.18288552,5.09999990,
5.824131,0.0681,0.5606,0.8639,0.0840,0.2349,0.2422,0.0585,0.0008,-0.0311,14.2776,-48.2239,1.0239,219.0443,-34.0542,3.9930,40.74521266,-74.18288552,5.09999990,
5.825693,0.0681,0.5606,0.8639,0.0064,0.0311,0.2791,0.0585,0.0008,-0.0311,14.2776,-48.2239,1.0239,219.0443,-34.0542,3.9930,40.74521266,-74.18288552,5.09999990,
5.826564,0.0681,0.5606,0.8639,0.0064,0.0311,0.2791,0.0585,0.0008,-0.0311,14.2776,-48.2239,1.0239,217.9808,-34.2425,3.9314,40.74521266,-74.18288552,5.09999990,
5.854525,0.0681,0.5606,0.8639,0.0064,0.0311,0.2791,0.0585,0.0008,-0.0311,17.7551,-50.4379,1.4603,217.9808,-34.2425,3.9314,40.74521266,-74.18288552,5.09999990,
5.862528,0.0591,0.5489,0.8057,0.0064,0.0311,0.2791,0.0585,0.0008,-0.0311,17.7551,-50.4379,1.4603,217.9808,-34.2425,3.9314,40.74521266,-74.18288552,5.09999990,
5.864128,0.0554,0.5379,0.7528,0.0064,0.0311,0.2791,0.0585,0.0008,-0.0311,17.7551,-50.4379,1.4603,217.9808,-34.2425,3.9314,40.74521266,-74.18288552,5.09999990,
5.865409,0.0505,0.5279,0.7430,0.0064,0.0311,0.2791,0.0585,0.0008,-0.0311,17.7551,-50.4379,1.4603,217.9808,-34.2425,3.9314,40.74521266,-74.18288552,5.09999990,
5.882418,0.0505,0.5279,0.7430,-0.1234,-0.3152,-0.6075,0.0585,0.0008,-0.0311,17.7551,-50.4379,1.4603,217.9808,-34.2425,3.9314,40.74521266,-74.18288552,5.09999990,
5.885258,0.0505,0.5279,0.7430,-0.1234,-0.3152,-0.6075,0.0880,-0.0027,-0.0079,17.7551,-50.4379,1.4603,217.9808,-34.2425,3.9314,40.74521266,-74.18288552,5.09999990,
5.886592,0.0505,0.5279,0.7430,-0.1234,-0.3152,-0.6075,0.0880,-0.0027,-0.0079,17.7551,-50.4379,1.4603,217.0118,-34.5471,3.9162,40.74521266,-74.18288552,5.09999990,
5.920716,0.0593,0.5201,0.7618,-0.1234,-0.3152,-0.6075,0.0880,-0.0027,-0.0079,17.7551,-50.4379,1.4603,217.0118,-34.5471,3.9162,40.74521266,-74.18288552,5.09999990,
5.922082,0.0576,0.5130,0.7760,-0.1234,-0.3152,-0.6075,0.0880,-0.0027,-0.0079,17.7551,-50.4379,1.4603,217.0118,-34.5471,3.9162,40.74521266,-74.18288552,5.09999990,
5.923050,0.0527,0.5179,0.7496,-0.1234,-0.3152,-0.6075,0.0880,-0.0027,-0.0079,17.7551,-50.4379,1.4603,217.0118,-34.5471,3.9162,40.74521266,-74.18288552,5.09999990,
5.940740,0.0527,0.5179,0.7496,-0.1234,-0.3152,-0.6075,0.0371,-0.0081,-0.0211,17.7551,-50.4379,1.4603,217.0118,-34.5471,3.9162,40.74521266,-74.18288552,5.09999990,
5.942426,0.0527,0.5179,0.7496,-0.0933,-0.4007,-0.5846,0.0371,-0.0081,-0.0211,17.7551,-50.4379,1.4603,217.0118,-34.5471,3.9162,40.74521266,-74.18288552,5.09999990,
5.943717,0.0527,0.5179,0.7496,-0.0933,-0.4007,-0.5846,0.0371,-0.0081,-0.0211,17.7551,-50.4379,1.4603,217.0837,-34.6766,3.8940,40.74521266,-74.18288552,5.09999990,
5.954551,0.0527,0.5179,0.7496,-0.0933,-0.4007,-0.5846,0.0371,-0.0081,-0.0211,20.3644,-48.2254,3.6011,217.0837,-34.6766,3.8940,40.74521266,-74.18288552,5.09999990,
5.979513,0.0628,0.5323,0.7323,-0.0933,-0.4007,-0.5846,0.0371,-0.0081,-0.0211,20.3644,-48.2254,3.6011,217.0837,-34.6766,3.8940,40.74521266,-74.18288552,5.09999990,
5.983902,0.0708,0.5491,0.7899,-0.0933,-0.4007,-0.5846,0.0371,-0.0081,-0.0211,20.3644,-48.2254,3.6011,217.0837,-34.6766,3.8940,40.74521266,-74.18288552,5.09999990,
5.985515,0.0615,0.5560,0.8263,-0.0933,-0.4007,-0.5846,0.0371,-0.0081,-0.0211,20.3644,-48.2254,3.6011,217.0837,-34.6766,3.8940,40.74521266,-74.18288552,5.09999990,
6.000045,0.0615,0.5560,0.8263,-0.0933,-0.4007,-0.5846,0.0000,0.0175,-0.0457,20.3644,-48.2254,3.6011,217.0837,-34.6766,3.8940,40.74521266,-74.18288552,5.09999990,
6.002919,0.0615,0.5560,0.8263,-0.0270,-0.1111,-0.1198,0.0000,0.0175,-0.0457,20.3644,-48.2254,3.6011,217.0837,-34.6766,3.8940,40.74521266,-74.18288552,5.09999990,
6.004182,0.0615,0.5560,0.8263,-0.0270,-0.1111,-0.1198,0.0000,0.0175,-0.0457,20.3644,-48.2254,3.6011,216.5352,-34.6806,3.7572,40.74521266,-74.18288552,5.09999990,
6.006209,0.0615,0.5560,0.8263,-0.0270,-0.1111,-0.1198,0.0000,0.0175,-0.0457,25.6683,-49.9481,5.2185,216.5352,-34.6806,3.7572,40.74521266,-74.18288552,5.09999990,
6.037826,0.0540,0.5467,0.7835,-0.0270,-0.1111,-0.1198,0.0000,0.0175,-0.0457,25.6683,-49.9481,5.2185,216.5352,-34.6806,3.7572,40.74521266,-74.18288552,5.09999990,
6.039440,0.0457,0.5435,0.7200,-0.0270,-0.1111,-0.1198,0.0000,0.0175,-0.0457,25.6683,-49.9481,5.2185,216.5352,-34.6806,3.7572,40.74521266,-74.18288552,5.09999990,
6.040462,0.0601,0.5313,0.6976,-0.0270,-0.1111,-0.1198,0.0000,0.0175,-0.0457,25.6683,-49.9481,5.2185,216.5352,-34.6806,3.7572,40.74521266,-74.18288552,5.09999990,
6.054289,0.0601,0.5313,0.6976,-0.0270,-0.1111,-0.1198,0.0000,0.0175,-0.0457,31.1325,-48.0728,5.7617,216.5352,-34.6806,3.7572,40.74521266,-74.18288552,5.09999990,
6.057034,0.0601,0.5313,0.6976,-0.0270,-0.1111,-0.1198,0.0717,0.0020,0.0147,31.1325,-48.0728,5.7617,216.5352,-34.6806,3.7572,40.74521266,-74.18288552,5.09999990,
6.057958,0.0601,0.5313,0.6976,-0.0765,-0.2943,-0.8810,0.0717,0.0020,0.0147,31.1325,-48.0728,5.7617,216.5352,-34.6806,3.7572,40.74521266,-74.18288552,5.09999990,
6.059253,0.0601,0.5313,0.6976,-0.0765,-0.2943,-0.8810,0.0717,0.0020,0.0147,31.1325,-48.0728,5.7617,215.8865,-34.9440,3.7780,40.74521266,-74.18288552,5.09999990,
6.096035,0.0662,0.5294,0.7374,-0.0765,-0.2943,-0.8810,0.0717,0.0020,0.0147,31.1325,-48.0728,5.7617,215.8865,-34.9440,3.7780,40.74521266,-74.18288552,5.09999990,
6.097729,0.0659,0.5281,0.7786,-0.0765,-0.2943,-0.8810,0.0717,0.0020,0.0147,31.1325,-48.0728,5.7617,215.8865,-34.9440,3.7780,40.74522926,-74.18298353,6.51999998,
6.098837,0.0566,0.5350,0.7623,-0.0765,-0.2943,-0.8810,0.0717,0.0020,0.0147,31.1325,-48.0728,5.7617,215.8865,-34.9440,3.7780,40.74522926,-74.18298353,6.51999998,
6.117447,0.0566,0.5350,0.7623,-0.0765,-0.2943,-0.8810,0.0228,-0.0183,-0.0026,31.1325,-48.0728,5.7617,215.8865,-34.9440,3.7780,40.74522926,-74.18298353,6.51999998,
6.118982,0.0566,0.5350,0.7623,-0.0671,-0.3281,-0.5062,0.0228,-0.0183,-0.0026,31.1325,-48.0728,5.7617,215.8865,-34.9440,3.7780,40.74522926,-74.18298353,6.51999998,
6.119881,0.0566,0.5350,0.7623,-0.0671,-0.3281,-0.5062,0.0228,-0.0183,-0.0026,31.1325,-48.0728,5.7617,215.8904,-35.0254,3.8205,40.74522926,-74.18298353,6.51999998,
6.154299,0.0542,0.5323,0.7237,-0.0671,-0.3281,-0.5062,0.0228,-0.0183,-0.0026,31.1325,-48.0728,5.7617,215.8904,-35.0254,3.8205,40.74522926,-74.18298353,6.51999998,
6.155658,0.0571,0.5374,0.7303,-0.0671,-0.3281,-0.5062,0.0228,-0.0183,-0.0026,31.1325,-48.0728,5.7617,215.8904,-35.0254,3.8205,40.74522926,-74.18298353,6.51999998,
6.156292,0.0642,0.5396,0.7498,-0.0671,-0.3281,-0.5062,0.0228,-0.0183,-0.0026,31.1325,-48.0728,5.7617,215.8904,-35.0254,3.8205,40.74522926,-74.18298353,6.51999998,
6.158043,0.0642,0.5396,0.7498,-0.0671,-0.3281,-0.5062,0.0228,-0.0183,-0.0026,30.9204,-43.4937,8.6655,215.8904,-35.0254,3.8205,40.74522926,-74.18298353,6.51999998,
6.173921,0.0642,0.5396,0.7498,-0.0671,-0.3281,-0.5062,-0.0134,-0.0116,0.0322,30.9204,-43.4937,8.6655,215.8904,-35.0254,3.8205,40.74522926,-74.18298353,6.51999998,
6.175635,0.0642,0.5396,0.7498,-0.0101,-0.2158,-0.6114,-0.0134,-0.0116,0.0322,30.9204,-43.4937,8.6655,215.8904,-35.0254,3.8205,40.74522926,-74.18298353,6.51999998,
6.176646,0.0642,0.5396,0.7498,-0.0101,-0.2158,-0.6114,-0.0134,-0.0116,0.0322,30.9204,-43.4937,8.6655,215.7581,-34.9936,3.9175,40.74522926,-74.18298353,6.51999998,
6.205332,0.0642,0.5396,0.7498,-0.0101,-0.2158,-0.6114,-0.0134,-0.0116,0.0322,30.6915,-35.1288,10.4843,215.7581,-34.9936,3.9175,40.74522926,-74.18298353,6.51999998,
6.212403,0.0776,0.5494,0.7503,-0.0101,-0.2158,-0.6114,-0.0134,-0.0116,0.0322,30.6915,-35.1288,10.4843,215.7581,-34.9936,3.9175,40.74522926,-74.18298353,6.51999998,
6.213755,0.0899,0.5574,0.7669,-0.0101,-0.2158,-0.6114,-0.0134,-0.0116,0.0322,30.6915,-35.1288,10.4843,215.7581,-34.9936,3.9175,40.74522926,-74.18298353,6.51999998,
6.214652,0.0850,0.5794,0.7982,-0.0101,-0.2158,-0.6114,-0.0134,-0.0116,0.0322,30.6915,-35.1288,10.4843,215.7581,-34.9936,3.9175,40.74522926,-74.18298353,6.51999998,
6.232403,0.0850,0.5794,0.7982,-0.0101,-0.2158,-0.6114,-0.0997,-0.0004,0.0027,30.6915,-35.1288,10.4843,215.7581,-34.9936,3.9175,40.74522926,-74.18298353,6.51999998,
6.235343,0.0850,0.5794,0.7982,-0.0101,-0.2158,-0.6114,-0.0997,-0.0004,0.0027,30.6915,-35.1288,10.4843,215.9999,-34.6830,3.9427,40.74522926,-74.18298353,6.51999998,
6.236870,0.0850,0.5794,0.7982,0.1882,0.1838,-0.1441,-0.0997,-0.0004,0.0027,30.6915,-35.1288,10.4843,215.9999,-34.6830,3.9427,40.74522926,-74.18298353,6.51999998,
6.254943,0.0850,0.5794,0.7982,0.1882,0.1838,-0.1441,-0.0997,-0.0004,0.0027,30.1773,-27.9968,12.9883,215.9999,-34.6830,3.9427,40.74522926,-74.18298353,6.51999998,
6.271263,0.0862,0.5987,0.8175,0.1882,0.1838,-0.1441,-0.0997,-0.0004,0.0027,30.1773,-27.9968,12.9883,215.9999,-34.6830,3.9427,40.74522926,-74.18298353,6.51999998,
6.272913,0.0837,0.6126,0.8685,0.1882,0.1838,-0.1441,-0.0997,-0.0004,0.0027,30.1773,-27.9968,12.9883,215.9999,-34.6830,3.9427,40.74522926,-74.18298353,6.51999998,
6.273876,0.0649,0.6133,0.9037,0.1882,0.1838,-0.1441,-0.0997,-0.0004,0.0027,30.1773,-27.9968,12.9883,215.9999,-34.6830,3.9427,40.74522926,-74.18298353,6.51999998,
6.290506,0.0649,0.6133,0.9037,0.1882,0.1838,-0.1441,-0.0777,0.0045,-0.0335,30.1773,-27.9968,12.9883,215.9999,-34.6830,3.9427,40.74522926,-74.18298353,6.51999998,
6.292342,0.0649,0.6133,0.9037,0.1882,0.1838,-0.1441,-0.0777,0.0045,-0.0335,30.1773,-27.9968,12.9883,216.4871,-34.4300,3.8571,40.74522926,-74.18298353,6.51999998,
6.293344,0.0649,0.6133,0.9037,-0.0384,0.5020,0.7090,-0.0777,0.0045,-0.0335,30.1773,-27.9968,12.9883,216.4871,-34.4300,3.8571,40.74522926,-74.18298353,6.51999998,
6.329652,0.0388,0.5989,0.8829,-0.0384,0.5020,0.7090,-0.0777,0.0045,-0.0335,30.1773,-27.9968,12.9883,216.4871,-34.4300,3.8571,40.74522926,-74.18298353,6.51999998,
6.332858,0.0396,0.5843,0.8380,-0.0384,0.5020,0.7090,-0.0777,0.0045,-0.0335,30.1773,-27.9968,12.9883,216.4871,-34.4300,3.8571,40.74522926,-74.18298353,6.51999998,
6.334348,0.0459,0.5679,0.7804,-0.0384,0.5020,0.7090,-0.0777,0.0045,-0.0335,30.1773,-27.9968,12.9883,216.4871,-34.4300,3.8571,40.74522926,-74.18298353,6.51999998,
6.354771,0.0459,0.5679,0.7804,-0.0384,0.5020,0.7090,0.0418,-0.0165,-0.0150,30.1773,-27.9968,12.9883,216.4871,-34.4300,3.8571,40.74522926,-74.18298353,6.51999998,
